Athlete_ID,Timestamp,Acc_X,Acc_Y,Acc_Z,Gyro_X,Gyro_Y,Gyro_Z,Heart_Rate,Event_Label,Acc_X_filt,Acc_Y_filt,Acc_Z_filt,Gyro_X_filt,Gyro_Y_filt,Gyro_Z_filt,Heart_Rate_clean,AccMag,GyroMag
A001,2025-05-11 12:14:53.417747,-2.5981574032585555,2.205079456209523,-0.649083760662414,-48.45796609568771,15.407056604322634,164.5505342799188,166.0,Accel,-2.5974489528842066,2.204663193638351,-0.6484837164963365,-48.411587571713774,15.296617173736843,164.6079548779711,165.89185644847208,3.4681136069603915,172.25982444343123
A001,2025-05-11 12:14:53.517747,-2.862470561102178,2.173831419460024,-2.0541837850021167,5.137738359318405,34.97425361393303,-15.28365334557165,159.0,Jump_Takeoff,-1.7374849594626662,1.9352157567333963,-0.3110659609221432,-81.80451637924861,-19.217659619450906,90.37420758037837,156.20222151451944,2.6192892244867902,123.40500288510651
A001,2025-05-11 12:14:53.617747,-1.0454408764326149,2.755974649403204,2.696017851149545,-175.9604796081135,-107.48155322794814,177.75721524397056,120.0,Stop,-0.20978457717346632,1.624881982281653,0.04014748478507975,-80.9236436940402,0.6618346943311497,28.506813071741547,147.09981988448916,1.6388602276271067,85.8004226410908
A001,2025-05-11 12:14:53.717747,2.9319393294840754,0.0052197202929935,-1.8350275355129424,-8.25597015578191,131.9094466289367,-172.1495544752176,119.0,Sprint_Mid,1.3882171154543275,1.5146793039891153,0.39745267195588196,-44.10740903382091,68.7967234249928,-17.46870093067278,139.05152998080442,2.0926941439250397,83.56798548425724
A001,2025-05-11 12:14:53.817747,2.5177302158460524,1.217080243061095,1.61157836694165,-44.26691105366902,147.3037253750021,104.18686284218028,121.0,Start_Run,1.922454546608886,1.6272176701957226,0.6822945688933848,-8.240077214286497,128.41029471468792,-47.57202231459113,132.4297193940933,2.6094433714330307,137.18673393703332
A001,2025-05-11 12:14:53.917747,0.8311502771499875,2.389554502048947,0.7793022220271961,86.69435685556152,121.12052265346064,-160.2937310724227,92.0,Landing,1.2448638384048767,1.3606709932178995,0.7363126790305083,-11.096244438032597,139.36634455494985,-57.95937199671272,127.48234971753547,1.9857663229226628,151.34527887413896
A001,2025-05-11 12:14:54.017747,-2.542717891318807,0.9163406373340396,0.1593333412071129,-113.6950338655345,137.61112440333503,-56.430505836452426,89.0,Stop,0.16923540427863454,0.2407889081361661,0.47077051763432903,-45.79431770996381,118.7480064816202,-45.13187658896516,124.31646080130547,0.5551979832604348,135.03738320302864
A001,2025-05-11 12:14:54.117747,2.721441224473784,-1.901187770569381,0.6362007151222704,-103.83043155462312,41.0633945018634,80.15389284990835,171.0,Sprint_Mid,-0.7660160846232029,-1.0813284512880326,0.03840416442054008,-68.1105079463951,106.18431128541916,-11.259669223848606,122.8963020387278,1.3257174439944874,126.65279075845596
A001,2025-05-11 12:14:54.217747,-2.9569533698972768,-1.9121215110920269,-1.0173158760098346,13.758636143626063,150.9397960257836,14.517672207139896,145.0,Sprint_Mid,-1.6152227725842454,-1.2976544536579644,-0.25162583099151004,-49.62903952604601,105.76829484581782,36.53274489995759,123.0553078382049,2.087143321622944,122.4116628789719
A001,2025-05-11 12:14:54.317747,-1.855944319471251,0.3162574210001878,-0.5553860834031372,-39.58622004445016,111.51133827683896,-33.26459982041476,92.0,Landing,-2.2159058920007166,-0.04068002996032217,-0.17923722749605708,-5.370219806010873,84.25275687442722,79.16425614932739,124.51937714248001,2.223515183389027,115.73394382540731
A001,2025-05-11 12:14:54.417747,-2.651619966653453,2.137464250149722,2.7636048600751275,67.82736112405473,-48.82741412397112,157.8961136861019,124.0,Landing,-1.9775425526115842,1.5015335928937819,0.3030999339249221,32.1923958017898,26.425843542724866,81.87083061153558,126.93815591723184,2.501429041152945,91.85591140164262
A001,2025-05-11 12:14:54.517747,-0.8115658233612679,0.8862680092089907,-1.6115242669371082,21.049891802167792,103.24515631055516,132.13137555960623,89.0,Start_Run,-0.7182281440105273,1.8358968708436507,1.039198722617781,45.87981566416544,-27.31516476617335,27.44174523915169,129.92123476979296,2.2285203549244827,60.034365936116146
A001,2025-05-11 12:14:54.617747,1.6687539677191303,2.363870351298649,1.3467625395084708,-12.537469203610216,-148.8566631816909,-159.49873846855866,167.0,Start_Run,0.869502400509433,0.8011704043455289,1.4956708632315485,35.5474060285658,-16.89977452291527,-45.7866314715229,133.07647046071864,1.9065518016593856,60.379102972751625
A001,2025-05-11 12:14:54.717747,1.887926703564303,-1.259695726225349,2.9484902772228203,113.89326808080256,74.87298049791156,-157.91487913344744,168.0,Accel,1.8923950929723048,-0.3055753373838774,0.983091679751783,7.781040431830531,61.27165319639667,-75.28038435405016,136.0472339467669,2.1542991262868094,97.37502936643874
A001,2025-05-11 12:14:54.817747,1.7403318344253051,-1.6258495242491864,-0.6465109120386661,-83.29264141710857,174.38977230518395,127.5107201300014,178.0,Landing,2.081216263432617,-0.2270583887935239,-0.41740014242175855,-23.466870401547865,132.51400716448165,-46.53901853663959,138.54455224443902,2.1347691973587306,142.39570340282398
A001,2025-05-11 12:14:54.917747,0.9350936914432446,2.4674709345257986,-2.44053048467185,-85.13587776639423,144.83087043915555,-77.63619246487441,150.0,Accel,1.750146703305012,0.923221131280978,-1.459716060010408,-39.22301960846135,119.37753925417711,-1.09981207006253,140.36987529122072,2.458886275569783,125.66085998503192
A001,2025-05-11 12:14:55.017747,2.519799137181855,2.950788420274597,-1.2762011997794112,71.03323450682257,34.955285619736,-3.982997924528007,143.0,Accel,1.294825634213639,2.0492723666904387,-0.9722694916377616,-32.10102834696667,31.122600947403342,24.995354560882173,141.4252821737,2.6117807374026127,51.22362794929975
A001,2025-05-11 12:14:55.117747,1.4765607731653605,1.0243544404723393,0.8618027287177235,-92.26183241969056,-171.95582384413515,111.13754287875828,166.0,Accel,1.0315650711999333,2.4260345102294436,0.6380904491431112,-17.02590536906243,-46.77094298744126,38.17770451279609,141.710099565034,2.7123660081618035,62.72909758188077
A001,2025-05-11 12:14:55.217747,-0.6339552414340619,1.6000349120169233,2.632775458517145,-26.161262649357184,98.69644529897975,-10.65325699194858,149.0,Jump_Takeoff,1.18948042008439,2.132035065516297,1.7874313342913215,-19.55930521688513,-49.14607674941053,60.10974880875074,141.3052638883065,3.0257805546935606,80.06925241487728
A001,2025-05-11 12:14:55.317747,2.380508187678388,2.520005008497929,2.446352058776056,9.800910576142511,-101.01037011951462,107.29676982125534,96.0,Stop,1.6523285353399313,1.4353697238022172,1.5948445963033724,-50.61991985665033,6.31535043121257,85.55104980088488,140.34865727434595,2.7081368353657322,99.60543187696243
A001,2025-05-11 12:14:55.417747,2.573005792522755,0.5480034753644905,-2.272780335769844,-113.74924871431364,163.56792431694402,85.74069085078258,125.0,Start_Run,1.9502442156885016,0.5327217739176761,0.7168019177664342,-89.22387768987787,50.63500598272907,79.95534157612343,139.00593467725977,2.145005822497014,130.06790852260164
A001,2025-05-11 12:14:55.517747,2.243443432711002,0.423317129699833,2.2700136353255225,-109.48601337151054,-119.88940547788056,27.207765251431283,117.0,Jump_Takeoff,1.835555284714492,-0.14445880238270675,0.21306877892912968,-97.59306442065937,35.441753038765206,20.944330358358,137.44193861622037,1.8535182365931813,105.92067341003752
A001,2025-05-11 12:14:55.617747,-0.1063412430805277,-2.702323580028409,-0.0027274600577076,-89.18661222447442,147.98359053859343,-36.54270206168874,87.0,Stop,1.574576535591164,-0.11675809034625428,0.26096911203881185,-64.82434668146533,-25.95940831451272,-63.47817510443761,135.79739069393983,1.600321403822964,94.36930389331077
A001,2025-05-11 12:14:55.717747,2.161723588887294,2.902151150503059,0.0229162219712755,-15.927226969875877,-152.73372769327486,-175.41398039860258,168.0,Sprint_Mid,1.3918538642590168,0.4990815635969085,0.34407770509066044,-25.57392138533837,-72.67199780684979,-111.39363504549702,134.17408999715778,1.518133411039869,135.43923600239197
A001,2025-05-11 12:14:55.817747,0.9407640277801907,0.6614938697388291,1.2501536162319669,57.73911849768382,-138.85391478874195,-75.21160270476733,123.0,Start_Run,1.0503568663351852,1.0744452474019575,0.2009000019992297,-16.770406789615237,-52.35239315551487,-87.35004551813365,132.629748594734,1.5159297302729484,103.20876932227607
A001,2025-05-11 12:14:55.917747,2.0578344122913794,1.4814219321331397,-1.7908379824905454,-57.128673423638375,167.9813972151171,33.89736883667453,168.0,Stop,0.3874488085350929,1.2797102434046321,0.05704388327904547,-26.297412320307323,28.61309624767643,-18.189613026452196,131.1815363410727,1.3382932753808334,42.90833478096215
A001,2025-05-11 12:14:56.017747,-2.7345343858931503,0.2149670366966534,1.237390225406747,-133.0122962078893,50.0204238679413,-8.2988041717675,92.0,Sprint_Mid,-0.12693824344224366,1.2939845019886762,0.09547128540066027,-12.579624077906109,114.64339270195354,35.35602551717221,129.81605346037088,1.3036962742031362,120.6291961861916
A001,2025-05-11 12:14:56.117747,1.3048416555984683,0.944840011149755,0.4226984092340671,179.0518253578934,172.96530150764784,13.72144517802775,100.0,Jump_Takeoff,0.09164663494001024,1.1866810986446408,0.18118034282240958,29.816678391275385,157.21132602517608,36.201418324466815,128.5030799185389,1.2039258499598406,164.0578496433072
A001,2025-05-11 12:14:56.217747,1.2158367840401043,2.999548960999059,-0.3882520110280083,-25.88656441502025,123.33181659612028,109.9811200535508,170.0,Start_Run,0.8262998633738926,0.7375102726274011,0.18841723293507523,58.38210850448287,150.18574961761453,-0.8103048853141188,127.21064623540671,1.1234740406923374,161.13623607258913
A001,2025-05-11 12:14:56.317747,-0.2206221755458264,-1.0563652790357052,0.652382895509092,135.44038552739073,138.15988495509117,-140.94059577464216,178.0,Landing,1.1239768674116428,0.028154409478968835,0.2577441577350148,41.53717070806039,118.08015521497313,-32.63068874852817,125.91899135492433,1.1534941352673325,129.35618057992443
A001,2025-05-11 12:14:56.417747,2.2893375664080065,-2.323729903506546,-0.078461110085338,-110.02713362419078,129.97983283833292,-88.75103590236118,139.0,Start_Run,0.35736936195659363,-0.4103885115444418,0.5369263525841903,-1.860013829073449,87.38539234090513,-36.759152541502715,124.63073552259846,0.7644746558076909,94.82036564782764
A001,2025-05-11 12:14:56.517747,-2.4235441461698635,2.0066997440865784,1.5151119634221724,-14.216702433055644,-25.48411936498809,143.04202760475675,123.0,Stop,-0.9646289310026585,-0.2814107936456381,0.8655686829771984,-32.945270961923235,65.15900458509444,-27.06643980618903,123.37493028445449,1.3262391014664292,77.86962771875152
A001,2025-05-11 12:14:56.617747,-0.5055056848070048,0.2437013062475959,0.4638385091384869,36.90408151913593,50.44730954073199,-82.1632688374329,97.0,Jump_Takeoff,-1.6010716839175716,0.12198360924011883,0.9400733047635147,-37.55797805763975,35.7018532884403,-19.123372738695558,122.2041984053188,1.860658043890626,55.23520099457002
A001,2025-05-11 12:14:56.717747,-2.8438227010971904,-1.5777509464879198,1.6451429502859485,-93.58616924490607,82.47718209415541,-89.31302446772825,104.0,Stop,-0.8717638813834461,0.38732472427418174,0.7351443090412952,-26.888055497691212,-11.914572638222264,-8.064002639458797,121.18637569102206,1.2043379351471932,30.495125973958455
A001,2025-05-11 12:14:56.817747,2.822302936754925,1.8431194087033749,-0.8357807825638073,-6.513022270862905,-74.89189416568732,35.00782859595037,84.0,Sprint_Mid,0.5305071547351382,0.44738147653299953,0.5600764134721953,-12.797717686476183,-52.66525004382157,2.6179180056308997,120.39363251986997,0.8917811478708754,54.26106923794627
A001,2025-05-11 12:14:56.917747,-0.7278560200019863,1.1693225148436808,1.9055672817092777,15.929897218429858,-168.40928804855872,42.81204824449978,135.0,Accel,1.2108151198388812,0.5263369462300578,0.6400173873251548,2.0545270710014876,-50.79266682798672,-13.24000701374246,119.89220409068378,1.4672171248577166,52.530123459861485
A001,2025-05-11 12:14:57.017747,2.6140311784903547,-0.648636474384519,-0.5828055650993758,54.27842032137968,9.71503859751408,-45.19804408616346,138.0,Start_Run,0.5951677945846539,0.7857497396065594,0.8107216048610216,17.086994054370557,-21.053983709130257,-60.419937294993446,119.73476310794085,1.276282444285342,66.22540614121863
A001,2025-05-11 12:14:57.117747,-1.169344858727507,0.5198580746738068,2.4888908951473665,-64.56069855977402,115.21001601555304,-176.58895274578924,118.0,Landing,-0.41052956445387145,0.9791455470699711,0.7987593998252301,23.30989247545058,-20.239821591938586,-96.67814285057509,119.95591280070946,1.3286373110999106,101.48726407942414
A001,2025-05-11 12:14:57.217747,-2.025296832932011,2.9148235363415296,-0.2148262654702137,35.051066985798315,-122.26555256213048,-75.82388368610597,110.0,Landing,-0.4676266498727556,0.5766689647492332,0.7014603141714031,1.59786387800173,-59.75711628561184,-86.88966879086536,120.57014041421847,1.0214050866006164,105.46696477253454
A001,2025-05-11 12:14:57.317747,2.422349522242845,-1.9365828133658796,1.093375605459504,10.966680014693535,-150.0502763334574,-77.30508170104817,135.0,Stop,0.6095300290745576,-0.5266306110997033,0.8852229692703221,-56.060958886842876,-75.02327243292292,-57.676749743958325,121.57126766876443,1.1968652230784564,109.99059041065313
A001,2025-05-11 12:14:57.417747,0.6301858061112515,-2.268965331873068,0.2917986641175965,-175.70221201649431,0.4358704948889453,71.10787989890699,106.0,Landing,1.6440437332757967,-1.622109473242792,1.3472855756427575,-119.68796551350526,-12.67555637324252,-57.33059649888747,122.93268332727202,2.6738170024222794,133.31420071789623
A001,2025-05-11 12:14:57.517747,2.6322648985021626,-0.2474668080632742,2.630497653744372,-141.3365674711923,161.96493399103252,-140.68904420687517,176.0,Start_Run,1.5130046540572497,-1.820943215529914,1.56350926099239,-137.08534614216342,90.00823914616335,-77.9454095765447,124.6079204652447,2.8371779088721754,181.57467366118271
A001,2025-05-11 12:14:57.617747,0.2981055351194173,-2.531374175874523,2.658978314762636,-144.22219957769036,127.740294445441,-179.88849651059786,122.0,Accel,0.40268665475057225,-0.9908961348841344,1.2445882821643215,-88.14897512952744,145.96161721768803,-67.39335683859925,126.53131169641463,1.6410459116500244,183.34912070463741
A001,2025-05-11 12:14:57.717747,-2.7939396938806897,0.9193876128410708,-1.9702598886926117,155.23080487369032,66.86170238724554,74.53219969218114,87.0,Stop,-0.5643527971905533,0.10087217842688426,0.8661576854387387,-5.836559604224714,115.20310664758138,-17.910751233159242,128.61879911207348,1.0387003476084813,116.73309821556091
A001,2025-05-11 12:14:57.817747,2.2845230283403097,0.2263954246992061,2.142505066885384,-82.45890906038065,91.9662167153686,26.8440853176171,104.0,Stop,-0.6445160922369779,0.5522627335779817,0.997573775910774,64.3868962131518,36.67610754136592,11.490974759993684,130.76963493455966,1.3097895092099068,74.98567709425468
A001,2025-05-11 12:14:57.917747,-1.6965991524453918,1.554545768376162,1.7057682287323583,152.1701942235722,-44.580560244812034,2.2506244190376776,125.0,Jump_Takeoff,-0.06468184875611839,0.1872355227711103,1.397046216733567,106.51317826684,-21.128052594711704,-19.88777021157632,132.87022273908104,1.41102055769413,110.3946337234605
A001,2025-05-11 12:14:58.017747,0.4258659149891954,-2.7660515717700296,1.5041353109323312,161.70619841019658,-54.47473596541201,-115.29111551822692,158.0,Stop,0.5271774713996015,-0.41191179405412837,1.2951098386191164,128.48217013145904,-23.060258769687138,-71.20236471988555,134.80097825724084,1.457702612510591,148.6916955243894
A001,2025-05-11 12:14:58.117747,2.506773756664079,1.0005363678442638,-0.1705044234346044,100.51384130599804,50.74967668396951,-158.18027143758715,173.0,Stop,0.7986116457800807,-0.7377929404452844,0.43467477610971705,132.04158631765907,13.567434943107395,-72.07772185212107,136.445763173052,1.1709232018934892,151.04388036465096
A001,2025-05-11 12:14:58.217747,-1.67118850180878,-2.482403153621421,-0.4996853101617056,42.47029686503066,59.5359752945428,166.58528810301243,137.0,Start_Run,0.8653402027273949,-0.9404144369030958,-0.5905363307406373,100.77252610468913,50.837751527245544,-10.748189477167369,137.70208440208344,1.407808984740711,113.38034474680036
A001,2025-05-11 12:14:58.317747,2.914641991185312,0.9280552834333676,-0.2746256537567912,139.74992130533735,70.0127071032214,-54.461802651474514,146.0,Sprint_Mid,0.9217437755955139,-1.3230457369133617,-1.0003524383720457,22.543262896666572,71.87797128869315,56.72808982029991,138.48990458594977,1.8975686050234364,94.30120695551268
A001,2025-05-11 12:14:58.417747,0.310740381476974,-2.6159995034856784,-2.182633330089306,-114.81094716914124,47.51355347399024,41.6843276328448,121.0,Landing,0.904000459817695,-1.5624683202830436,-0.5879362838511825,-75.8603123668951,83.77669392159298,69.83333175844382,138.75776722839635,1.898471268444023,132.8533614980067
A001,2025-05-11 12:14:58.517747,-0.2763596512153108,-2.4992873055732394,1.6286386145661649,-162.78611301238973,78.44918462018575,147.9150750688391,84.0,Start_Run,0.5347427595444306,-1.0003332467317738,0.20680683882627166,-135.52308804087755,88.7766678944747,20.12237297476676,138.4862689763319,1.1529898056736843,163.25658960273833
A001,2025-05-11 12:14:58.617747,0.8859575138417681,2.500939752140521,0.8564514024085508,-168.04926500203084,178.83453059510725,-144.37717139284743,166.0,Start_Run,-0.30339926617415314,0.27073998196051907,0.8609446162014008,-127.14702095284834,75.766507858483,-43.09643741669578,137.6897326646861,0.9521433110163481,154.15651646383554
A001,2025-05-11 12:14:58.717747,-1.4829827815512595,-0.6481133225582392,0.8756051088056296,-22.86455424922545,-89.80341878479383,-59.5993727238031,177.0,Stop,-1.2162881665246952,1.1611644108178114,1.225019134537,-90.88828365536078,44.72833092976468,-55.848721079779686,136.41671086103338,2.0804642686092114,115.67360692840391
A001,2025-05-11 12:14:58.817747,-1.4633574503962443,2.27508843534945,0.290840527052377,-77.34373605299349,156.63128027294425,68.70642316777773,105.0,Accel,-1.4480849913073714,0.7458101621438243,1.3288353834695663,-87.66038859261494,17.566084161051386,1.2710114825379344,134.74896354323965,2.102138534057015,89.41211613170856
A001,2025-05-11 12:14:58.917747,-1.7372266971479795,-0.8039196489590932,2.28208917511194,-132.55679929172032,-135.99569057237062,-2.169004210104248,172.0,Jump_Takeoff,-0.6149547681078943,-0.5616382834898337,1.046148929677468,-121.10178591355702,9.891381056184745,81.13281644702141,132.79774397716668,1.3371740766876063,146.10275793179852
A001,2025-05-11 12:14:59.017747,1.9250619814721317,-1.9312044180198007,1.1978080020081592,-170.14655083186727,70.62310822887633,165.75742941788053,153.0,Stop,0.7822330057048097,-1.3609007859778144,0.33533256586482635,-138.06236616602294,6.072014897163044,110.3370501159262,130.69633309512938,1.605112878964748,176.8399020146663
A001,2025-05-11 12:14:59.117747,2.315296425430466,-1.5918988026884986,-2.319236990851386,-160.76999810357617,38.98714094708285,77.527156500074,95.0,Jump_Takeoff,1.8552090906965188,-0.8477497745058415,-0.426122390821611,-102.46630337171075,-16.41912678507483,55.84670546646602,128.5886903557276,2.083761200890648,117.84644908738672
A001,2025-05-11 12:14:59.217747,1.3593527233455711,1.266136305613465,-0.7081760495003042,148.1145511817523,-80.16374089401201,-106.09907161690776,128.0,Start_Run,2.2401181396930867,0.2712329726888257,-0.824552194427314,-35.93567617799405,-43.97726174510975,-43.75369648571442,126.61530946459627,2.4024118977790905,71.69210785805898
A001,2025-05-11 12:14:59.317747,2.207963600016664,1.7555229602014109,0.4478524237310344,-149.88117238157406,-81.60755088466094,-72.82085469893391,104.0,Start_Run,2.1825447095813346,0.7005821585051458,-0.9541707084999485,19.33114865456062,-38.01702087996547,-112.34679657674846,124.89843070472044,2.482893173516834,120.16983767131315
A001,2025-05-11 12:14:59.417747,1.563887637468154,-1.908715811090476,-1.98248399507572,130.60801228634176,-0.6665625955559165,-91.46260286897432,115.0,Sprint_Mid,1.8581565596164937,0.12880073864796013,-1.150460632010754,45.38933691587483,4.8570088880852325,-105.87219255424911,123.52926006654862,2.1892681645080962,115.29398768906269
A001,2025-05-11 12:14:59.517747,2.351251001605326,0.7939358756654986,-0.9159297423598964,-6.034404494514774,90.81700594032225,-155.6995576059405,116.0,Landing,1.1287465256505076,-0.5193619122198537,-1.3909908062870004,42.96350952348173,37.96161607191108,-52.48496815248423,122.55953475993962,1.8651168698523197,77.72785425658402
A001,2025-05-11 12:14:59.617747,-1.0614675162326863,-0.8061470237747317,-2.7271322921637786,32.1123264349871,79.89262917441602,98.46690848715711,92.0,Start_Run,0.07509766586329261,-0.2896500258822459,-1.3992067033877633,8.961241871626576,29.20521776024233,-20.631584167145967,121.99883723920051,1.4308445742696698,36.863408219411774
A001,2025-05-11 12:14:59.717747,0.1830366005372581,0.3382289786724692,-0.0358350427987868,-32.442953758979655,-89.17502786592452,-35.75000462659841,128.0,Jump_Takeoff,-0.6809682072208982,0.7121889173476493,-1.1666197843007073,-56.16272110111205,9.29596560179577,-40.91204275003889,121.8178705469,1.527066624073845,70.10322003968203
A001,2025-05-11 12:14:59.817747,-1.251586402270531,2.105437932905998,-0.2491943391256574,-171.36145951197372,-1.9489495670475208,-149.5643992631557,177.0,Sprint_Mid,-0.5549694993615113,1.4961613853285574,-0.9549856797986934,-127.01156481225907,25.393738174540037,-68.16064317986053,121.95668896113982,1.859700966497143,146.36479362615876
A001,2025-05-11 12:14:59.917747,-0.365940052802344,1.782377299213377,-2.43817003531526,-114.36720350628978,170.58249539107732,2.1302423858500674,121.0,Sprint_Mid,0.20039906311789352,1.2690149665304324,-0.8990137055555683,-159.31588691912944,69.58981731528523,-37.995076886013855,122.33584344928227,1.5680511511278954,177.9548267577413
A001,2025-05-11 12:15:00.017747,2.246666329236957,-0.9494543862086235,-1.045391282139789,-167.368459962132,54.50412913233004,12.565722308326173,84.0,Start_Run,0.615897977155543,0.1950553633650678,-0.9251017461266821,-126.28354578874965,87.57290165200935,45.32587055682734,122.86799195560702,1.1283572810632299,160.22166389869378
A001,2025-05-11 12:15:00.117747,-1.052399356322097,-0.4856496080214278,1.094858274295908,-52.77659277324439,46.32117361138549,138.70177575933036,169.0,Stop,0.08436352189898362,-0.9082978803611692,-0.9018200326237888,-46.33086683350742,46.27072609317387,102.19559736981189,123.46802336734612,1.2827320899304595,121.37326491656398
A001,2025-05-11 12:15:00.217747,0.0170622638588131,-1.1154572685985318,-1.917101951591204,90.03026698151837,-106.3975225562892,67.53783635776557,98.0,Landing,-0.8823437121908092,-1.4340283523452482,-0.6533389709677309,31.933543529270658,-33.322109811689636,66.50929102158933,124.06072345814172,1.8060508167706295,80.95430808074757
A001,2025-05-11 12:15:00.317747,-2.201975874074053,-2.01926484999655,-0.9424223436108994,22.34307602118864,33.35902204805811,-4.965456637213208,170.0,Stop,-1.2345729311014444,-1.4020543608455271,-0.12390049514569941,74.58760784828617,-99.17387176196874,-34.35403789581792,124.58574398637317,1.8722387897038457,128.75934142630754
A001,2025-05-11 12:15:00.417747,-1.3387768982090602,-0.6139131891297938,1.0815937723714475,140.6922819529691,-165.21610545121982,-154.2460241194645,84.0,Accel,-0.6294084382928824,-1.1688628882419612,0.2931349531042288,86.53781441111558,-106.33009776204317,-105.51052290048129,124.99999550333295,1.3595306301937604,172.99524113648712
A001,2025-05-11 12:15:00.517747,2.8909032597890354,-0.7814676643193867,0.7547870377273855,-3.553609918825231,-128.5818194819642,-160.0042955858746,107.0,Start_Run,0.2256209892486992,-0.9805872042169428,0.028903738042901587,88.205297755159,-50.187942520830966,-88.063336758174,125.27793515813353,1.0066238234496612,134.36575236098687
A001,2025-05-11 12:15:00.617747,-2.134863216563081,-1.773577351406783,-1.5224056561152857,155.8853543269514,92.05708809639049,104.2917949135853,127.0,Jump_Takeoff,0.4826958418549866,-0.8944921230918839,-0.815958364292455,80.36302835311197,21.7640575573321,-13.657923548086586,125.41058992467946,1.3034183849694383,84.37078524635955
A001,2025-05-11 12:15:00.717747,2.0178592500940304,-0.5508415090954921,-1.4230618427256676,27.270030067311808,115.98584609402424,100.31477438696736,174.0,Jump_Takeoff,0.057561139844492536,-0.9821885113491544,-1.323370048949574,46.72312904990961,48.84063339845517,51.43813534378815,125.40413022965743,1.6490348216769903,84.93727112771325
A001,2025-05-11 12:15:00.817747,-2.773445162409596,-1.2560024304037365,-0.5178824175659766,18.095075229304054,-73.41716530504976,-76.41125548149667,103.0,Sprint_Mid,-0.48121392791322015,-1.3029425137624635,-0.786335018191153,-14.203572597240656,17.22535897121662,81.28488367777675,125.27827685480747,1.5961042570649946,84.29523581271991
A001,2025-05-11 12:15:00.917747,2.1688488740561658,-1.0236760680804218,-0.7911984601131707,-165.91238838581063,-62.32363568448494,139.81092580845507,104.0,Sprint_Mid,-0.6050611640936561,-1.564763864256374,0.35959020593455226,-78.34870921147075,-34.478035236441556,82.84158949500474,125.06434228327153,1.7157768151426234,119.12171967751216
A001,2025-05-11 12:15:01.017747,-2.190921824887657,-1.462123720434325,2.841043101441417,-43.157930805156894,23.75814177690907,73.54490485739268,146.0,Sprint_Mid,-0.26529238072463135,-1.164631880669646,0.9794867365172064,-118.42536185147134,-65.55142563190932,52.12235764067322,124.80279763489028,1.5447141262239388,145.04584067821423
A001,2025-05-11 12:15:01.117747,-0.3837046762686542,-1.3572120515885269,0.5360302677032864,-128.84149446027035,-86.61902132849188,16.64926833703987,107.0,Start_Run,0.13423709027056405,0.03972084756753822,0.5462907605390653,-122.3070493513183,-67.47866628669769,-12.263308861955682,124.54065669658793,0.5639423172507465,140.224011742287
A001,2025-05-11 12:15:01.217747,2.6143550943504845,2.526206319272029,-2.697497966218984,-117.68955378465536,-129.77983027339428,-78.75974360825376,117.0,Landing,0.16409945028390654,1.2013355134611796,-0.342525248297724,-91.24023902161173,-56.09215950064304,-69.47667526613918,124.32908158693064,1.2599441222561951,127.66409040996209
A001,2025-05-11 12:15:01.317747,-2.0929024839764745,1.8618188240008244,1.55927222423274,-5.606830499616365,13.597480006059442,-158.56411031910136,107.0,Sprint_Mid,-0.054311082254451325,1.2646802406173028,-0.788620402424087,-40.337422843961946,-51.29809825766327,-61.4188456101112,124.22131881233123,1.4914046881323049,89.61516145510275
A001,2025-05-11 12:15:01.417747,1.2997895385924654,-0.4441618066805199,-1.8589311868560447,-100.26369899274871,-20.50559691983588,96.56016168113337,169.0,Accel,0.15088053371966126,0.27989846598475415,-0.534663281632405,-3.316141860601567,-59.75888517042645,19.027120829658102,124.27059539936565,0.6220714681144609,62.80248785452896
A001,2025-05-11 12:15:01.517747,-0.0746078203264515,-0.7129499942089197,1.3132678823648103,138.19540031491744,-178.12349334830702,156.1019469229322,176.0,Accel,1.1132347508225697,-0.5735496777184728,0.03479957085123699,-11.599107459889748,-66.81750550460934,117.39577603487913,124.5271123355114,1.2527816463300312,135.57612830640974
A001,2025-05-11 12:15:01.617747,2.517151677114869,-1.2413287251992364,-1.0630056633811862,-156.26128029865671,41.417081484945925,125.727251147402,102.0,Start_Run,2.091944565129421,-0.3888339014570042,0.4112473205677083,-53.03041835106128,-52.203317600342544,176.81572706122444,125.03310789022142,2.167152100146853,191.83642244151716
A001,2025-05-11 12:15:01.717747,2.220858033310422,2.354557065216236,0.8624427502634795,9.17612287535428,-60.69848842925417,172.80014961575932,96.0,Accel,1.8991419272673105,0.49550236515346224,0.29263573350778754,-69.81737425841769,-16.621747649452878,180.2859402473588,125.81566568676614,1.9844138495542984,194.04578968412656
A001,2025-05-11 12:15:01.817747,1.2944642340028034,0.1307329028240649,0.1235989008178863,-153.46446527799225,4.39001163345813,116.18785117421773,101.0,Jump_Takeoff,0.3687535951469154,1.0790525222544256,-0.21609828453077834,-21.242642369296853,15.366995785082315,138.65271958506798,126.87845333974838,1.1606170894375794,141.10978372396465
A001,2025-05-11 12:15:01.917747,-2.3599056151095894,0.786991264194425,0.4100835047894815,140.51249674133106,90.44785086655372,167.49427289951274,121.0,Sprint_Mid,-1.2300021300940795,0.8168060146196793,-0.5308952784203839,61.378441976662714,20.202030167081414,74.51094802654532,128.19484891033034,1.5690529316131796,98.62715923197199
A001,2025-05-11 12:15:02.017747,-2.9980190444431414,-0.1664192352287079,-2.824237769967776,170.83171931845482,-100.05653716509887,-9.840697428655917,146.0,Sprint_Mid,-1.5652066218219534,-0.0946607763310452,-0.11060051519406269,108.9907838172297,-2.7103668529351523,24.110590285862532,129.7048894432312,1.5719621196237776,111.65866562656173
A001,2025-05-11 12:15:02.117747,1.773271658512134,-1.0529713162799428,2.141813011973799,38.99353176835723,62.50800774184589,-74.9974501403292,126.0,Stop,-0.6914445498562477,-1.1603892657639043,0.7334704564805823,99.32015033137604,-35.461498960819014,17.495523824016345,131.31724003778328,1.537067898355774,106.90230832059721
A001,2025-05-11 12:15:02.217747,-0.5260945315012506,-1.5858680164523928,1.9950730111607555,43.9504220903836,-166.52448811689476,115.17012697632782,125.0,Sprint_Mid,0.28027271173768364,-1.9181793733622792,1.000965648509845,77.01074912239666,-63.311327860546164,40.29485486019009,132.91592988127198,2.1817188477973133,107.52978677586073
A001,2025-05-11 12:15:02.317747,1.1782550992233949,-2.337341238353093,-0.3531070497191888,111.24667521601106,1.9207155517716217,72.97165181420348,145.0,Sprint_Mid,0.5773110207107055,-1.9986459097929306,0.24677624787354874,88.18982825954247,-84.28755390388837,43.37619220718369,134.37072669367961,2.094939618194423,129.47328528288384
A001,2025-05-11 12:15:02.417747,-2.019192371362337,-1.4656060393587036,-1.5157450828035586,165.62411394466932,-155.68985259868418,-25.64585722673857,117.0,Sprint_Mid,0.21867731424101822,-1.2829560397593132,-0.808104634757651,125.3243270471434,-94.65934245242708,5.469911625106205,135.54974330076053,1.5319363787166105,157.15119470284563
A001,2025-05-11 12:15:02.517747,1.5018746302783184,0.2881984333295575,-0.7087694865929972,111.55550941388498,30.40917539206069,-39.39764312626858,179.0,Jump_Takeoff,-0.5968665559368328,-0.13663177611543245,-1.2373316800978669,144.16615568890057,-77.44289764429315,-38.343596703651,136.33281089609426,1.3805461290424756,168.08186770093027
A001,2025-05-11 12:15:02.617747,-2.0998838292608277,0.3720879272581445,-2.05403642967996,85.06980575312787,-166.5962622302625,-86.58431163436252,113.0,Sprint_Mid,-1.6833556801307554,0.6961875390607011,-1.039155830233821,111.48829345768202,-26.658585826760103,-45.233715183252485,136.62411969643958,2.097190567135189,123.23314799869621
A001,2025-05-11 12:15:02.717747,-2.089760306976609,0.4017028538328611,1.5865971742211524,92.73017977886065,9.22748925582144,44.9062055663249,162.0,Accel,-2.4166265773142652,0.6529556085546876,-0.8878979479629225,30.071389582706395,19.105440447152155,-20.02569254625213,136.36273365773403,2.656086935121185,40.869728260310204
A001,2025-05-11 12:15:02.817747,-2.692921585990743,1.3500409466838723,-2.860066010623949,-117.1600216714926,175.5308669538868,-50.0814315020495,80.0,Jump_Takeoff,-1.93481743249111,-0.10028876599645871,-1.0963387283696802,-62.41865081492745,4.1928408176369985,-2.70019997502239,135.52995274748858,2.2261030840865907,62.61756114368394
A001,2025-05-11 12:15:02.917747,-0.8242982904872278,-2.2333022725569407,-2.27134430562975,-78.64738556151804,-160.7848220961861,67.8643878274427,171.0,Landing,-0.22960899488363704,-0.7772157978141471,-1.3592776729670197,-111.24920932582522,-64.43637248763338,-12.448488431449881,134.15295737409343,1.5825360909407378,129.16422701047784
A001,2025-05-11 12:15:03.017747,2.609008813051412,-1.4595354753926526,0.6674962370023603,-63.100717839668704,-101.90405513432898,-149.4286779516429,178.0,Start_Run,1.4344318313317828,-0.7702356782372708,-1.382665848978972,-80.6833104727991,-103.1853558644868,-25.904227240563014,132.3043734049281,2.1360296179360954,133.52169577511216
A001,2025-05-11 12:15:03.117747,2.253339926097638,2.255603552671949,-1.9435977837740543,-84.63341034078476,-152.49840595368994,100.2486023694666,127.0,Accel,1.7030193998236176,-0.25906302362192596,-1.2365745521616096,8.339031368973366,-51.70910770337949,-12.749479569495717,130.09732218325473,2.120496486542106,53.90659044073749
A001,2025-05-11 12:15:03.217747,-0.8234690327929406,-2.249935079460938,-2.135877851689803,140.70874122277655,175.68289542526549,-75.9823737941819,121.0,Jump_Takeoff,0.5748404447508739,0.1348010691278883,-1.0611896275449206,82.62293797531393,42.90565075016814,23.098764502296028,127.67572641488229,1.2143872079235403,95.92183102662558
A001,2025-05-11 12:15:03.317747,-0.1067263094627435,1.2571683814595875,0.6744174486178323,162.39894554974052,114.4000382297861,132.82997942304075,108.0,Accel,-0.6738051058973111,0.1625158665248782,-0.7689821567214128,80.20956919632475,80.17553703476489,48.01287851615268,125.20061013832571,1.0352575935300037,123.15408329763086
A001,2025-05-11 12:15:03.417747,-1.0363488400112997,1.2104160627634748,-0.3656817602916291,-76.40847339756316,-125.1825531579729,10.034714840242458,90.0,Stop,-0.8488149511354051,0.15199048042331792,-0.11851786480320121,11.350563154208427,24.568582627214486,38.52714041738041,122.83446075700166,0.8704219733484564,47.082810928920615
A001,2025-05-11 12:15:03.517747,0.4127140959250495,-2.300709819398676,0.4199239172324587,-119.37092155014923,58.93709956252883,-25.421761200407985,123.0,Sprint_Mid,0.16632004030728445,0.3693291343140731,0.9224816346135698,-59.6469737643255,-63.543644651185865,6.8524455054041535,120.72644952166996,1.0074913058981319,87.42146340689368
A001,2025-05-11 12:15:03.617747,1.6695944687626725,1.3462923090998018,1.2044225960058137,21.77569421211672,-157.99911259379604,55.97626447188037,111.0,Start_Run,1.5657601145341506,0.458679452560375,1.824025705946721,-84.88835991329553,-101.45123368252136,-14.90068715769197,119.00091304919947,2.4472558820894714,133.11805640951255
A001,2025-05-11 12:15:03.717747,1.952486625442864,2.303410889760652,2.6223278013946523,-57.263083086889566,-73.05229519326983,-95.73750267405303,115.0,Start_Run,2.3494331324896254,-0.07854387311943609,1.7993762095021038,-62.98868709268452,-62.57142941110059,-10.05955576271462,117.75026925615921,2.96036483011246,89.35296940981665
A001,2025-05-11 12:15:03.817747,1.860922411660188,-2.91548152702278,2.436645599171243,-98.40697242009468,74.13571409978286,19.106318652197587,139.0,Jump_Takeoff,1.9308396489058985,-0.9227630146831893,0.8373273809196453,-16.43070869458986,9.023448707973648,9.827123995309481,117.0321454111602,2.297988353732894,21.165140699061972
A001,2025-05-11 12:15:03.917747,1.307527940356315,-1.7569111686333618,-2.0458492154014407,54.688538423862695,-75.39147759432159,170.6220747567939,133.0,Landing,0.4720583975189077,-1.1169488268958596,0.06355068111819205,25.149772072362392,43.064049571142114,27.951742469578324,116.86948584723534,1.2142703577221763,57.16925141930051
A001,2025-05-11 12:15:04.017747,-1.765774230140581,-0.1385674468063493,-0.4106742602813562,50.72099934139453,160.0952582971484,-139.5343039399384,137.0,Start_Run,-1.1422937018114812,-0.357564691269421,0.4355831454612934,28.636101107656778,7.08047675280285,44.09286366349661,117.25205581214072,1.2737425510089264,53.05035403974815
A001,2025-05-11 12:15:04.117747,-1.845533772677164,2.364645590387685,2.787481114809917,-7.667394519473959,-142.55629281786935,102.70608002016236,113.0,Accel,-1.894291151318229,0.5963086376967953,1.3728417555021695,-19.694729313918348,-62.05084482020872,59.52152891166894,118.1381451923246,2.414252978253238,88.20998871801753
A001,2025-05-11 12:15:04.217747,-2.052351086377912,0.21310691032145,2.798000602833862,-123.63070457557302,-112.92853769911792,153.6538874142234,88.0,Stop,-1.4669718175126827,0.9984090018458404,1.484400030981381,-91.12445670212405,-94.95933080574213,54.52328185721404,119.45627724382749,2.313497417400935,142.45606122876222
A001,2025-05-11 12:15:04.317747,0.5070362158998849,-0.3621460768509208,-1.186853838431689,-155.81332925139552,-89.02517050471504,-108.77232611604082,91.0,Accel,-0.44282796705342375,0.87099857091759,0.4932056799200133,-131.99477148190311,-62.97513715443859,7.150024224043586,121.1078762143078,1.0945259072541476,146.42271150536925
A001,2025-05-11 12:15:04.417747,0.6100201305815629,0.6514303458360988,-0.6709139937259252,-28.35729587322143,120.3258346706304,-8.556187133821538,147.0,Sprint_Mid,0.4125476756379678,0.48865852153605055,-0.431175182770147,-107.4229093473389,-3.9985890354129277,-67.55449784368447,122.97243597116795,0.7712942198544978,126.96172787825898
A001,2025-05-11 12:15:04.517747,-0.489396239536231,1.808659612368685,0.232201116548314,-71.94244447944781,-83.81357381855322,-101.65895119842278,106.0,Stop,0.8920967570876007,-0.08990074331329,-0.28819305377471877,-29.09582080453083,26.398071383850265,-116.25263852111136,124.91631182514148,0.9417929729502624,122.7114539242218
A001,2025-05-11 12:15:04.617747,2.9839236698386227,-1.3069281261046013,0.4522203889543013,-17.741525208426935,22.97429300706156,-123.3169354116552,92.0,Jump_Takeoff,1.24908549815531,-0.6566466862773926,0.5840391576783643,47.276125234477384,11.92933040137667,-94.5914284296324,126.80507561539949,1.527252824519448,106.41841604426119
A001,2025-05-11 12:15:04.717747,-0.2280099432363092,-2.789572323128805,1.75030728938117,138.1535995803776,66.97429154929023,-83.52179115710064,165.0,Landing,1.5866955155819584,-0.7808337173270204,1.1960105214303958,57.16474804608768,-20.3713513118264,-16.622535563930825,128.51808119580204,2.134887613120381,62.92145152502985
A001,2025-05-11 12:15:04.817747,2.4572314194803315,1.0260748490692198,0.8741119510454443,21.38476172336669,-163.52051780565878,155.4920768468113,177.0,Stop,1.6740035309932808,-0.5088304815317355,1.216664240965732,-12.61641164534736,-35.649605591496055,52.243685293538846,129.96285737199904,2.1310720672840957,64.49395998606698
A001,2025-05-11 12:15:04.917747,2.964371900298662,0.224138428637322,1.2606653514372788,-159.76455916816002,47.425023656427925,95.2738601725286,175.0,Stop,1.3890576847401257,-0.5077701039454123,1.1579072502389414,-97.01479206139452,-21.507082013370965,62.4550723212552,131.08631736037796,1.8783133205491143,117.3672037414997
A001,2025-05-11 12:15:05.017747,-1.387949724810602,-2.272638783958623,0.3529939053289048,-116.45955989349996,39.7302369558864,-85.13228070585649,86.0,Jump_Takeoff,0.9918751885098274,-1.1088602504841778,1.415946286316768,-115.41738348027185,11.987487410332594,27.891702104072586,131.8799996577184,2.053847932642406,119.34328347296021
A001,2025-05-11 12:15:05.117747,1.1357044905057885,-0.9713344755832072,2.8065259402387293,-143.45861101072722,-0.8111458957046409,-25.902794900853134,114.0,Stop,0.6899775932073244,-1.7181659819627955,1.6096711008044322,-64.02706067183254,52.885180982229045,-6.573470665452496,132.37802650613122,2.4534067077162933,83.3037657155258
A001,2025-05-11 12:15:05.217747,0.873203945280892,-2.213665539469995,1.2999745088021817,173.0131645697234,109.64113720870682,129.60603104743632,153.0,Sprint_Mid,0.25490433161989523,-1.607189478444738,1.1162964965393258,-12.94935757867005,96.57348735209234,-19.848428854219648,132.64855767355417,1.9733606122774487,99.43884778609424
A001,2025-05-11 12:15:05.317747,0.4488313492336839,-1.9227644868024436,-0.4041130522313736,-56.69153734796549,163.10675599994255,-92.764716706539,149.0,Sprint_Mid,-0.4815762638283826,-0.9557384683083684,0.000117454328754249,-9.239250195521658,132.8644071604865,-15.521434195484035,132.78091411275898,1.0702110686602198,134.08664867826226
A001,2025-05-11 12:15:05.417747,-2.498506667997866,1.9357495660713608,-2.088224844730709,-166.27261892706983,79.01620209338711,-79.10449193720581,105.0,Landing,-1.049790683952697,-0.5988300248111533,-0.9471910232942944,-27.790104533984294,137.03148161104355,2.9357660262307057,132.8707298908244,1.5355222933381625,139.85183439872466
A001,2025-05-11 12:15:05.517747,-1.2512623717597764,-2.0113631885286845,1.2377328842340436,50.024038872369374,136.42160493434233,166.29291281377823,149.0,Start_Run,-0.8553857144325817,-0.8007322970600904,-1.0135996292778608,-31.486397412892902,87.22247433124362,29.824119808257052,133.0051634692612,1.5492711642842527,97.40960616306972
A001,2025-05-11 12:15:05.617747,0.6261688497672284,-1.1833584458598454,-1.7978381759792983,15.325273226904416,-21.521169730439283,-39.55924316378406,97.0,Stop,-0.08649179284290603,-0.8562608682754689,-0.21415303968971044,-28.650934127243445,-4.00417317006991,49.467449086147916,133.250091992842,0.8868624635068184,57.305653719595476
A001,2025-05-11 12:15:05.717747,2.117598370783327,-1.095199538204668,0.5892113747631531,-39.637884883320055,-35.16254756688198,83.68721250388256,96.0,Stop,0.45264230792794324,-0.14330189234799742,0.7188908764804396,-40.86570844082444,-81.78835047709372,52.23943154284511,133.64121096147218,0.8615245693325679,105.30099053690799
A001,2025-05-11 12:15:05.817747,-2.6901492166634604,2.9774525917021237,1.4193432178190672,-148.5179436590087,-172.71022327556685,78.94360805482086,161.0,Landing,0.287969868306064,0.9652927052636675,0.907095845628179,-54.85070633663364,-90.67402376856037,47.72152932552194,134.18054215284207,1.3555587501260735,116.2227298473742
A001,2025-05-11 12:15:05.917747,0.7999627941904981,1.1311464126471886,0.9505532651826912,37.18572517751923,-31.09793423421792,-45.61020803382826,152.0,Accel,-0.3436423404018953,1.6590427399357774,0.1755130292549928,-43.086942940733145,-32.65783019989345,49.99724967251361,134.8387855120435,1.7033254810777558,73.63927960103038
A001,2025-05-11 12:15:06.017747,0.4813877223597358,1.0919846836844016,-0.9751518297799616,-42.65002992228796,84.47561922710298,153.9975954264549,143.0,Accel,-0.8202556853062848,1.724489098471455,-0.6328984908463455,-11.411427709992713,33.37784390142974,57.57476339157305,135.56257092280842,2.0117759665876704,67.52151157582463
A001,2025-05-11 12:15:06.117747,-1.37017921552742,1.45473160616912,-2.503609156073969,8.413973089549586,138.22888660102717,18.61534229366646,92.0,Accel,-0.5654328115995446,1.5386417412223121,-0.5782692961259964,1.9191973422416746,60.7766621655274,58.672520074106124,136.28470500362363,1.73825431140183,84.49822834987431
A001,2025-05-11 12:15:06.217747,-1.250080887631806,1.7491957120013517,1.8486620796860604,-13.036515928072902,-114.9081713864513,52.83898598949571,173.0,Sprint_Mid,0.433947225203006,1.3426870187174187,0.16710079254569138,-30.552071734885523,59.9355303423285,52.91804276256802,136.93539148929003,1.4209297306211368,85.59214995857242
A001,2025-05-11 12:15:06.317747,2.875398499783466,1.7719521240491272,1.245220989761977,-131.20384189985467,114.14893947900951,84.95797226353312,128.0,Landing,1.3228366109639265,1.0096809177343202,0.5428856576344175,-94.5677394016359,58.38617967190789,54.76061374935787,137.45273276032222,1.7504505397778312,123.89805539403108
A001,2025-05-11 12:15:06.417747,2.0688340022160023,-1.448287372137143,-1.046131338300644,-94.95109162255872,147.01771705365502,0.9537604640215988,175.0,Landing,1.1256983360114723,0.3941449190865396,0.03588093224613915,-143.0489196333518,48.36764306609707,71.67783852139048,137.7909732039837,1.193245323577505,167.1530282080975
A001,2025-05-11 12:15:06.517747,-1.120052602195051,1.209118662670889,-0.6724167740707676,-179.9368142911476,-121.46179237654194,137.7425790785428,177.0,Landing,-0.009573375551011794,-0.41966498975571903,-0.6878763272084888,-133.61063521105862,5.7160762795713,90.79566558663917,137.92497110188643,0.8058437780860186,161.64259419737505
A001,2025-05-11 12:15:06.617747,-1.2388322749923022,-2.10390929808316,-0.7885398369711742,-30.52884990891269,46.326360032857735,149.23035490927094,102.0,Accel,-0.8867744837081759,-1.11261456627491,-0.7175087202628627,-66.14144926277741,-57.906187948245254,96.41078542652856,137.84986339431435,1.5934550265684497,130.47167301693574
A001,2025-05-11 12:15:06.717747,-1.1219446848186403,0.0332756278089849,0.9008504078817844,-64.08608857771537,-165.20424647291347,-1.5608223731091186,141.0,Landing,-0.7667714244298984,-1.2057726404199847,-0.015231158723915759,10.820190499329962,-92.76303951919466,90.30004214545062,137.57611094791628,1.4290059712624403,129.90825853174854
A001,2025-05-11 12:15:06.817747,1.7801018764381586,-1.8479413408584329,-1.2745695066484295,173.8218772869978,-45.52252050913043,102.14004867620122,115.0,Jump_Takeoff,-0.25421796415533404,-0.3865177756091863,0.6071358133536235,38.00018388625468,-61.629440852536774,79.68739223887191,137.1216674283979,0.7633063998275672,107.66746229487032
A001,2025-05-11 12:15:06.917747,-2.961071497316841,1.2410661445745903,2.6248031268824663,-112.70327578499648,49.29968715367639,88.72551331983993,122.0,Sprint_Mid,-0.42109649254986153,0.9839779728228041,0.46127308165228736,-2.43382350561493,18.41469275531825,54.43768607391816,136.5040822356224,1.1654646124594552,57.51944081101377
A001,2025-05-11 12:15:07.017747,0.8811613441033299,2.821762396492514,-0.9319611539247132,-54.02572784229325,15.484503605164406,-41.93932279827345,84.0,Sprint_Mid,-1.4023789902847503,1.8878246991761458,-0.2108332677061585,-72.6269503657175,87.31549567610892,-1.2208652957881059,135.73538184452897,2.3611437046446873,113.57887222833061
A001,2025-05-11 12:15:07.117747,-2.931012165616213,0.7268067040316923,-0.5632571542125371,-66.68766257012311,174.7808249892608,-12.18883119828655,165.0,Jump_Takeoff,-2.184273771638065,1.5023558580940473,-0.5530593919690814,-114.7604038875009,97.96607340465495,-74.55277748851275,134.82161784848773,2.708135839440239,168.30157001644477
A001,2025-05-11 12:15:07.217747,-2.903781599816125,0.3746936476285123,-2.257436003495933,-151.1851233270814,91.9796647308434,-176.57776712948197,124.0,Landing,-1.8038727367872045,0.047295059667340475,-0.2840214521450842,-97.24329603731714,64.02654495045593,-123.55574895961688,133.76737017307224,1.8267079291642927,169.76949132122039
A001,2025-05-11 12:15:07.317747,-0.3961238928770112,-1.1339831210814528,2.496292057245861,-33.55117969162288,-82.92676980973981,-144.84201234837104,160.0,Sprint_Mid,-0.5792105982825625,-1.3687565128095194,-0.15984755272538784,-33.10866227785952,44.37955636509566,-120.92217426752096,132.58370839803433,1.4948346225029763,132.99586749435775
A001,2025-05-11 12:15:07.417747,1.950548764787059,-2.800213298608968,-0.8481264095908516,89.9555236552655,160.6974650956994,-43.98541781583418,150.0,Landing,0.1673004303286854,-1.7826572751028344,-0.8371826988661604,36.44234181163032,73.41709640113382,-86.1246464661613,131.2967649244243,1.976545285528782,118.89309925142983
A001,2025-05-11 12:15:07.517747,-1.473842767161709,-0.4080744454490563,-2.659709170306647,31.713404945024596,92.26617258974176,-31.207477895600302,154.0,Jump_Takeoff,-0.3503688717594086,-1.2145535973322084,-1.7324940354718998,75.70393515600755,119.88848278394613,-59.906834046699196,129.9536895983475,2.1446291917336846,153.92583560871222
A001,2025-05-11 12:15:07.617747,-1.763578485476263,-0.7066157518949718,-2.8490752210613213,94.87430463289913,149.45084505179523,-94.38456698046292,141.0,Landing,-1.5416552443551217,-0.45769572731474767,-1.7497401561867536,74.68770184418258,127.96078471071579,-55.53841562703537,128.6234219886768,2.37650518312548,158.22999349336078
A001,2025-05-11 12:15:07.717747,-2.560610974336597,0.5992078389302828,0.1589911639694481,5.843915256898498,134.3373434578175,-106.00615054962486,142.0,Landing,-2.30093900932274,-0.12461717418299713,-0.8618837342984143,42.54112163146485,85.16306823637493,-51.53127271708203,127.39115226985317,2.4602222127630355,108.24956022515205
A001,2025-05-11 12:15:07.817747,-1.5286825296757445,-0.8772240871865691,0.8314364262337941,32.31195040415707,-130.76107627631995,124.181810483797,91.0,Start_Run,-2.235544202829216,-0.10596348267253423,-0.10922307708327969,-3.6339727916209896,30.290864561362902,-26.955912656953693,126.34713770178887,2.2407177026638023,40.710729068568504
A001,2025-05-11 12:15:07.917747,-1.9644852357043676,-0.5216739122796117,-0.1051473334930048,-14.674539108927265,170.61867600004143,-163.6184743954934,85.0,Jump_Takeoff,-1.7292448008953862,-0.01310884331070799,-0.09368855720664235,-37.42241129943061,3.554146344463521,11.555491573710052,125.57221644357845,1.731830525469548,39.32681285346804
A001,2025-05-11 12:15:08.017747,-0.6844714172808581,1.2055738178965916,-2.940700273347232,-58.28777221305941,-71.0475436109488,132.51531394225668,137.0,Jump_Takeoff,-1.1949905338881357,0.17187099521738108,-0.30942889289817377,-31.12849585434324,11.809598405808057,38.5317414927775,125.12333535403329,1.246309855067934,50.92293168236251
A001,2025-05-11 12:15:08.117747,-1.804548728492291,-0.0225889567802934,2.40166216276615,-63.952166373776535,54.72526152208727,74.93460758661641,156.0,Start_Run,-0.7686461022970588,0.17418487310581407,-0.07488034065775141,13.612979317968309,39.369094647215185,40.62023030655213,125.02224075420025,0.7916844485098656,58.18283191294625
A001,2025-05-11 12:15:08.217747,-0.7604702459011472,0.0346998007202969,0.90262958259952,164.25777629076742,95.34146295699082,-34.10755899404123,90.0,Jump_Takeoff,-0.593999594285238,-0.07396377182835362,0.5485025403460609,56.066883724663,67.66209776964992,36.04411852667799,125.2493622119472,0.8118874271228655,94.97806802388516
A001,2025-05-11 12:15:08.317747,1.0196950860184808,-1.4532140270152445,-1.529418494828183,77.2999926513935,7.702105054656641,65.97957975206032,94.0,Accel,-0.8356866039363617,-0.40146628607702445,0.930176437832761,61.84648478390968,77.75503322431707,54.15464632358973,125.74370420700662,1.3133070792295354,113.15281079263613
A001,2025-05-11 12:15:08.417747,-2.616252619085163,0.2232209195464984,2.0753978757691502,-33.61137997570111,101.90428925724586,121.10256262223844,146.0,Landing,-1.2650795868335591,-0.7595809101200547,0.5852534731027639,47.437298202789535,54.95885900405915,93.69944327924303,126.40885258329999,1.587422800586103,118.53421073533376
A001,2025-05-11 12:15:08.517747,-1.440501156853658,-1.1962766408661476,0.9669256183145576,70.4106627492759,73.47588638308201,65.77146171930124,124.0,Jump_Takeoff,-1.3069237034563421,-1.2078713355404684,-0.2511523813445717,52.02477077090943,7.287905671150023,116.18129360549975,127.12469587397727,1.7972424011611245,127.50601290403755
A001,2025-05-11 12:15:08.617747,-0.6308779535779299,-1.4710942581337114,-2.058997800621822,69.32785658288603,-146.45203704996737,157.60522324324137,116.0,Start_Run,-0.7673825185494418,-1.5711766452788292,-0.6412009714431341,75.43024319918466,-32.39872311116508,90.7248356737464,127.76365930499169,1.8624206469604387,122.35356413423506
A001,2025-05-11 12:15:08.717747,-0.3149983648580727,-2.0158695322274203,-0.9233758266893792,115.19273090967728,-41.74294220729124,39.55353057228808,139.0,Start_Run,-0.1505041481402568,-1.557894207479103,0.08445747609537037,78.27846134949772,-39.26488414393058,36.8086761374084,128.20931949970694,1.567424296600243,94.99540661037099
A001,2025-05-11 12:15:08.817747,1.7093483679831012,-2.551220112018364,2.931148003955529,62.92671465656014,91.24189568715798,-91.51061173996824,143.0,Landing,0.03179970084855788,-1.2820979984954726,1.2649195157408342,43.265259321497325,-22.13255309292214,7.877021545181451,128.3746592619212,1.8013350271457504,49.23190062338322
A001,2025-05-11 12:15:08.917747,-2.101646615122858,1.6959775613766483,0.5286603198777478,-42.927015341454,-60.1556953727232,128.07288158419084,146.0,Accel,-0.07903984236832298,-1.157333977366322,1.3965522452487917,1.2046529480328028,-4.864414460219825,31.35062661942407,128.21703042354963,1.815496462557171,31.74862998928522
A001,2025-05-11 12:15:09.017747,-0.1110379287036344,-1.9842827383632635,1.3766639299592986,-94.47629638194545,-56.70987975510161,24.27813045521026,151.0,Jump_Takeoff,-0.05674376195194168,-1.091159652024581,-0.048620325865143296,-16.139645453421338,-0.8499151635702782,78.10557976429511,127.7470670716508,1.0937153088505691,79.76021628270624
A001,2025-05-11 12:15:09.117747,1.611000644176667,-1.9877938263585373,-2.9017385611291298,123.58896307343667,28.17138432121871,140.99977279287305,173.0,Jump_Takeoff,0.10463304323605266,-0.40228496011819564,-1.794183164943272,-17.65859684166284,-18.067524007529475,96.69441335186708,127.02945795017098,1.8417042358207227,99.9403374000747
A001,2025-05-11 12:15:09.217747,-0.7654578229499576,1.7394702013368306,-2.7640830739891604,-24.563686248519133,-42.387870723694334,53.12825669046924,85.0,Start_Run,0.10845736448238753,1.0622367717927341,-2.1848434921007067,-25.327973653643294,-61.60991535141869,65.63931871799932,126.17478049175703,2.43179995974873,93.51902523428974
A001,2025-05-11 12:15:09.317747,0.0622524397731729,2.9212610816503237,-1.1865036305208152,-168.88747228471402,-120.36125970849142,-37.75504148115576,93.0,Stop,-0.023588393572656255,2.3259685197407785,-1.1532768579474904,-33.873144694834856,-110.39601445191467,5.425534150414736,125.32337950972928,2.596292255932233,115.60322815216661
A001,2025-05-11 12:15:09.417747,0.4838748021597023,2.7216202065047668,0.9029000999681251,62.32078883158354,-115.58573583809908,-2.66051561298238,174.0,Landing,0.055182158529543106,2.4036821090277654,-0.16865825546161728,-27.597643888157627,-116.03512834079356,-47.27067277628444,124.62398426760731,2.410223715553289,128.29769078968084
A001,2025-05-11 12:15:09.517747,-1.187706807063959,1.28373253945231,0.672282477946534,-26.21478153298617,-93.9507707506791,-47.15470823545965,95.0,Landing,0.4041942566347235,1.6366995182072415,-0.21587957409684488,-13.4367942604764,-54.244279344090444,-64.30652024563824,124.21066876037227,1.6996359317537824,85.19576179400457
A001,2025-05-11 12:15:09.617747,2.546966151181752,0.4341270721657464,-2.5821821041496364,19.03298166927766,27.26601569736502,-102.83764343652878,99.0,Accel,0.5842635742999913,1.2519958018636608,-0.5503229938083506,-4.833039749454534,31.93732506255262,-36.23722673968049,124.18168624189178,1.4871828433828231,48.54366701387498
A001,2025-05-11 12:15:09.717747,-0.0575378331791682,2.23539911014778,0.2816091146892647,-6.9186895383192,152.85635655181653,79.08825457632764,126.0,Accel,0.2187254376707411,1.7023313474508963,0.0813545542486924,10.16484378997557,68.1495528668953,21.276585355897133,124.58318221976808,1.7182524253133604,72.11365120169093
A001,2025-05-11 12:15:09.817747,-1.933773232819116,1.7227371776366516,2.0151079270797254,16.268698472506742,19.60388203199014,47.49586662652001,92.0,Accel,-0.5039064940983865,2.070454203142031,1.5144851824967935,51.16158075739085,29.293949897145303,68.89824513674726,125.40020460066008,2.6142623682609547,90.67861395662598
A001,2025-05-11 12:15:09.917747,0.3190602368205391,2.6496062327242456,2.5268828255509987,138.2803034041504,-144.7218928693033,48.347067787318935,123.0,Stop,-1.08953034847189,1.3629146185013692,2.199238596758307,99.98196158860644,-40.21172652560472,67.2798385869091,126.55659432377809,2.8073587307356105,127.04311186977489
A001,2025-05-11 12:15:10.017747,-2.034267075259625,-0.5439422170263324,0.9694604434443508,48.13550763231993,-42.249184176394266,40.78310177992671,114.0,Start_Run,-1.2932813849581568,-0.026294783125741072,1.0941026044406794,104.5911610235085,-87.34704492215981,14.288015949568399,127.9240670659172,1.6942044343416163,137.014468654425
A001,2025-05-11 12:15:10.117747,-0.4550947196504009,-1.546915690963482,-1.035998245501021,174.72873951890608,-47.45951990780608,9.621005930564053,165.0,Jump_Takeoff,-1.2141999475256697,-0.6874374904945638,-1.0207490415224638,44.51749506746181,-97.59272388956335,-40.480472590066,129.3392870563869,1.728808960434273,114.65084292922194
A001,2025-05-11 12:15:10.217747,-2.6722707810657704,-0.0537310693657362,-2.4515007053128937,-122.47719763911464,-42.10619384942575,-124.00556705982456,121.0,Jump_Takeoff,-0.9815514924361042,-0.019334141575602034,-2.308704566100624,-25.89596614685973,-75.05898771254782,-36.20954565072515,130.62636328929275,2.50877139549778,87.26731286881508
A001,2025-05-11 12:15:10.317747,2.5047639435584745,1.3540688009311097,-2.552320556055857,-34.95758002883795,-179.08070822349706,4.034427597227847,116.0,Accel,-0.5365922420450568,0.8775698629041475,-1.7458715729461516,-29.740824341407887,-21.16379280603764,28.646543486675345,131.6213334492544,2.026358222951217,46.40093977687685
A001,2025-05-11 12:15:10.417747,-2.998485273056628,1.5790463136584325,1.4810887277767089,3.500174003933182,145.05083036389937,147.04063404854458,177.0,Jump_Takeoff,0.22015236254927067,0.4851516612856925,-0.07422460799480139,36.80633670987448,43.88061029310926,83.45291584584119,132.19501252263822,0.5379112283790651,101.21562895555918
A001,2025-05-11 12:15:10.517747,2.519608390688369,-2.748371914184597,-0.6265073285034197,178.8533913855419,83.76190920024067,163.14755173409054,167.0,Jump_Takeoff,1.0761251328701378,-1.2735714684018353,1.0564932529601996,94.59776224783342,77.70245085907023,66.88716386025627,132.27088712973176,1.9738813490867182,139.50017986035934
A001,2025-05-11 12:15:10.617747,1.4669303396955975,-2.3661429067785487,2.8906041071877944,83.14621493800178,126.18795945779084,-162.66571589764766,121.0,Jump_Takeoff,1.494053747901825,-2.9043124003050536,0.7760279172063458,83.37224340087899,62.90769299107334,2.6913556221517254,131.83533781550636,3.3569996199685233,104.47752008082617
A001,2025-05-11 12:15:10.717747,1.975174674821492,-2.960445567966366,-1.6613102487679992,37.88667272598551,-145.18421928941666,-12.127602259443734,165.0,Landing,1.1533077420596163,-3.005782755444558,-0.2533019994890136,41.94032279315755,29.77495352001565,-37.080870375985434,130.9385327709894,3.2293978732524833,63.40764528788289
A001,2025-05-11 12:15:10.817747,-1.3746836698417515,-2.7399262804360456,-0.8134391319884933,-43.2325638633167,109.89741499461036,55.12704130427616,106.0,Landing,0.324063542816666,-1.7193584520780434,-0.7630444795341778,52.04401143875484,11.93010749985795,-26.31914734714473,129.68598131124782,1.908781691095836,59.528179114400324
A001,2025-05-11 12:15:10.917747,0.1320087009123254,0.647520350789279,-0.7053377696750376,175.48438210562784,73.80765341886917,-75.23755402350072,120.0,Stop,-0.5119540189124431,-0.3820584141513951,-0.381005492623248,118.5678937089158,7.102156981832894,-5.6461725744202615,128.22256125486714,0.7437948203056841,118.91452946172511
A001,2025-05-11 12:15:11.017747,-0.5820014456783866,1.3353245796969375,1.103881995361137,166.82161621314566,-102.5531184871155,18.604642950950225,112.0,Landing,-1.165359142972465,0.09731032497059348,0.08436068439891165,152.45598690189215,-4.193867642805195,-17.661597548199737,126.71220850175244,1.1724538185052977,153.5328905999944
A001,2025-05-11 12:15:11.117747,-1.7324716151365094,-1.872740766353124,-0.1725780431977805,139.9206957565748,-11.41002454369169,-31.01445195401988,96.0,Jump_Takeoff,-1.645462200676673,0.13000704214856437,-0.13596185570261668,84.46046221975524,-29.8863420770906,-53.91059073658854,125.31700719440293,1.6561803377259487,104.56153649737328
A001,2025-05-11 12:15:11.217747,-2.714325729435071,0.4353927233861334,-0.9848741048350068,-114.50109537056387,-63.38319621190784,-162.25912747881182,123.0,Landing,-1.8698234398638252,0.5061096947670973,-0.7208995598523833,-40.904072171372064,-66.48837393319846,-71.05017046806684,124.17908642243144,2.066901762251122,105.55554799262327
A001,2025-05-11 12:15:11.317747,-1.4710930922114294,1.677889234487802,-1.4642780085004186,-125.88784154360532,-54.06885047261002,35.187872101517854,131.0,Jump_Takeoff,-1.7384878379909183,1.0308773116370886,-0.776200860484626,-112.85443539562618,-101.14561071533403,-41.97887272110137,123.40768127471362,2.165071770244008,157.2538836098425
A001,2025-05-11 12:15:11.417747,-0.0492361196240587,1.3996697752059095,0.3999364656123743,-82.22438751105682,-127.60576872384732,38.20477999787198,120.0,Sprint_Mid,-1.2996838766682182,0.793154549498272,-0.1258138364170694,-76.45902822694997,-109.02738388328743,17.366062898016228,123.07232647578095,1.527776632919589,134.29271601401587
A001,2025-05-11 12:15:11.517747,-2.4241458198233223,-0.6262952052403898,0.0886585320027215,117.6815641772124,-152.60361989998955,-54.54167463143895,89.0,Stop,-0.7086717160874738,-0.32161487280316264,0.4577495615644597,21.14434111351853,-76.09318664911773,63.18949046107098,123.20189394195553,0.9028767295168342,101.14429257388713
A001,2025-05-11 12:15:11.617747,0.8905435906294725,-1.260250069177279,2.0720107321358547,-2.4143109974307606,-0.5933191282342136,171.57144211213836,170.0,Landing,-0.21211525102728027,-1.166475815423298,0.38935918600485475,94.52649434499803,-26.09297229406225,60.7192400342207,123.78834845682543,1.2479019526437871,115.3383173391521
A001,2025-05-11 12:15:11.717747,-1.705851792162686,-1.9461370047668016,-1.479728430852291,140.95801778863347,158.76974975672692,25.066837537199007,123.0,Start_Run,-0.11674520794580233,-0.6862407761060213,0.1240997536940753,98.77954045495338,3.719265676154901,16.419202534038988,124.79360336607371,0.7070760887173553,100.20389593980559
A001,2025-05-11 12:15:11.817747,2.646118936183405,2.228144047393247,0.0686570035057378,23.48149722149904,-177.86394117141967,-102.41958389984444,119.0,Jump_Takeoff,-0.3992829654811866,0.7522793826395945,0.45301261198069326,49.161978944075976,12.300537580826928,-24.8575350825566,126.15757503186455,0.9646613823936512,56.445552959074085
A001,2025-05-11 12:15:11.917747,-2.818100373989067,1.5873397951861818,2.0125677676072904,42.99175941643677,89.54050870679856,8.174161141956688,178.0,Stop,-0.40714274722469873,1.8335650484898847,1.2359668605792207,-4.802353201181129,27.82594012206898,-29.04771143022305,127.80558952184798,2.248408344609903,40.51067858329917
A001,2025-05-11 12:15:12.017747,0.7657482055383187,2.4050218816939406,1.3101613134862902,-54.52320542278406,31.45809429671297,-68.12578966592831,113.0,Stop,0.4888635645134866,1.851805977491852,1.462839516778155,-16.33904101838608,54.17630468125252,-14.951861287692015,129.65384034223658,2.409994276929124,58.52857768887597
A001,2025-05-11 12:15:12.117747,1.7112952507513397,0.0762808895579709,1.878395695534012,-0.9873945822207588,164.38835623101727,90.96182950132597,93.0,Stop,1.8178439737469974,1.2775465393780745,0.6240511121779465,24.454257994914002,61.644424498014345,-24.199947343268878,131.61251492788003,2.30783917632397,70.59520704120212
A001,2025-05-11 12:15:12.217747,2.582884917479202,0.7578065686431952,-2.49626578157459,138.59770082220933,-83.20505423705465,-92.24298249021813,150.0,Sprint_Mid,2.1905757664286836,0.8329897774194059,-0.5485685921783753,79.54639836140734,33.3966253613798,-53.783010650733374,133.58718488546904,2.4069527743756027,101.6640364753287
A001,2025-05-11 12:15:12.317747,2.034081618958812,1.3760732059786358,-0.7838395763301667,55.23576750094642,27.68792684341653,-134.62106077713352,154.0,Landing,0.956587391852772,0.6386260420168426,-0.9629918486352054,94.5158987226771,-10.113858766470269,-53.29044797451946,135.4796625013796,1.5000853176841766,108.97438733862387
A001,2025-05-11 12:15:12.417747,-1.9480699297284048,1.6957247344620558,0.9828606315016968,65.95499143713113,-6.640777034186414,60.12055176511129,107.0,Accel,-0.7400848609971221,0.5120904043326691,-0.3803343459320533,49.96410833633695,-37.722332788379916,0.4314935782470708,137.1894831780182,0.9770447269098221,62.60649087395464
A001,2025-05-11 12:15:12.517747,-1.258076376398603,-1.762631175419067,-0.1476157688167019,5.127108452054074,-105.0187108949712,39.085321630914194,144.0,Stop,-1.142575815788047,0.4964435132619656,0.5237023147076719,-19.780777318726564,-37.108345715131456,58.15737707819525,138.6167427889003,1.3513695908646821,71.7676039844034
A001,2025-05-11 12:15:12.617747,-0.7569594842072886,0.512710181144632,0.0138114309866779,-109.60257659180324,82.80395595884801,108.52309001665708,133.0,Jump_Takeoff,0.0014319376184076735,0.5975373727210108,0.9732062664219597,-62.459531987935875,-14.812243861480422,51.56095945299355,139.66667953482641,1.1420084935089763,82.33546164367571
A001,2025-05-11 12:15:12.717747,2.496906160886408,2.733932551449201,2.56241469630711,-85.51869589301755,-96.31114552196516,-72.84077786544687,113.0,Sprint_Mid,1.134702084796915,0.4630051840153022,0.7186641676206704,-59.63384486901558,17.616091477482037,-25.498433016650743,140.25616451145612,1.4207043350005728,67.20634061686037
A001,2025-05-11 12:15:12.817747,2.075590713955496,-0.8605470043027648,-1.6042533239437518,45.53752746067374,151.63743603826276,-114.01438911860822,159.0,Stop,0.8630206452432787,-0.14372582014538454,0.13840603405438556,-34.19781455695547,51.473507718764665,-112.13894661678208,140.32185862240607,0.88578664234411,128.03966520444803
A001,2025-05-11 12:15:12.917747,-2.806893580707587,-2.713597261927464,1.736297764131776,11.90837603686748,28.130642554363305,-161.06873032282425,133.0,Stop,-0.4011872046201976,-0.9067092349710579,-0.07206592972570902,-9.315750276155946,81.51218713768696,-149.7156261497022,139.82912167641334,0.9941158424248153,170.72137701112416
A001,2025-05-11 12:15:13.017747,-1.0784896177789136,-0.2355111900337689,-1.623596239820865,-113.97259309775372,100.04045126118302,-107.76091799216071,172.0,Accel,-1.2065833330306897,-1.367244005377764,0.4694503217273091,16.432136626065734,104.23348058502361,-134.7779850901575,138.78001869935093,1.8829718835815774,171.17166486871858
A001,2025-05-11 12:15:13.117747,0.2257476044841277,0.1011511532239044,2.4305042265657217,104.37577958011684,147.266109490066,-101.43106027878464,158.0,Stop,-0.9249893883734008,-1.3627658270934004,1.3616337964494998,44.744516317129246,117.79000084484517,-101.6966289689588,137.2182884442162,2.1370031969396854,161.92208120924255
A001,2025-05-11 12:15:13.217747,-0.37334213364994,-2.9812539021157702,2.2486281750200163,135.69156248770963,110.3100026467647,-90.6053461110567,154.0,Start_Run,-0.1741694340610802,-0.8474826201269304,1.753004938119387,58.067257918324195,124.86354434551335,-72.23086900600904,135.2292737583168,1.9548882567168182,155.49922696283863
A001,2025-05-11 12:15:13.317747,-0.1598749240031933,1.0914309987646291,0.8031174053012542,-26.19100935658642,143.77195041153368,6.9348292156239495,122.0,Sprint_Mid,0.30951674012354896,0.17361574086587278,1.231625598071468,42.69480145083747,130.77300483275351,-38.06044128069459,132.9337394257972,1.2817350161862693,142.7340956267808
A001,2025-05-11 12:15:13.417747,1.4916099573129582,0.9666794468663582,-0.3649968566740442,-52.59210311409584,91.5693315682052,-63.66916574646248,111.0,Landing,0.47667983396055175,1.2781662120290747,0.2074851875850699,9.897681960030052,130.3320964187302,9.577557780969707,130.4760172862674,1.3798487716937042,131.0578081540009
A001,2025-05-11 12:15:13.517747,-1.555890544659955,1.558169986799471,0.3860470072389041,128.15130974225167,142.0408810358578,53.544053680343296,156.0,Stop,0.593930131506084,1.7011885533345656,-0.6286698955307605,-18.45573682197647,100.4029292321898,51.02141607574768,128.0084482715684,1.9084080624054292,114.12513885389465
A001,2025-05-11 12:15:13.617747,2.8232535369345584,2.8724874876929247,-2.218664304251168,-142.5832837299712,-31.421978250109163,166.92597801378076,89.0,Start_Run,0.6404697960337354,1.1351408000744492,-0.9810551595915741,-29.372546532191343,23.506153300916605,57.27104693931058,125.67504203554331,1.631323211931469,68.52195670233486
A001,2025-05-11 12:15:13.717747,-0.3876142187304023,-2.5586338261337027,-0.0093489573900336,-2.04687070197852,31.839777950588346,-49.38478903032066,82.0,Stop,0.4255711378514919,0.19524193772227708,-0.9582440002773035,-21.297411841577652,-71.55778220575743,33.99319299158361,123.59746680545007,1.0665185285241003,82.03434107201348
A001,2025-05-11 12:15:13.817747,0.2922075336374177,2.145279539621069,0.0850232802456112,66.05878215531067,-152.91071363594415,-18.357991471064537,88.0,Landing,0.05826169832157392,-0.22524425525984132,-0.6436345577365843,-2.6171626614933343,-111.30992309038533,21.728634855768,121.86605575444982,0.6843937784138917,113.44109524982342
A001,2025-05-11 12:15:13.917747,-0.9842181086780872,-2.11705379421766,-2.1394883265823506,-119.61201378974302,-163.5938922190247,144.77550791504814,137.0,Start_Run,-0.12421269849338598,0.03894307301250709,-0.0009336531334764933,11.331040433946841,-50.076099279980696,43.70718488031136,120.53743136293264,0.13017768284479456,67.42645034833095
A001,2025-05-11 12:15:14.017747,1.1997564762830235,1.968651055609845,1.7492460379992014,137.73802454238296,168.2116641089827,-21.934578692901766,160.0,Jump_Takeoff,-0.10701723527194948,0.3225514816219511,0.7813963259990003,11.212206788131132,60.17650482002268,72.6579083913462,119.63848033309021,0.8520988001555356,95.00577332572628
A001,2025-05-11 12:15:14.117747,-1.955693331809792,0.3108610542417249,2.670131505211433,6.433062905207208,119.48838268302234,92.53153960597189,176.0,Sprint_Mid,-0.34019618517116684,0.014639981855102685,1.2281280990195316,4.677791111446511,107.16280496847816,63.99058486092065,119.1742714414803,1.274459258303325,124.90213548709686
A001,2025-05-11 12:15:14.217747,0.5094690016309071,-2.9268746939295447,-1.007548546911984,-157.59225858283887,7.874270195362897,114.28115418250314,91.0,Accel,-1.1352472284117976,-0.6963520273623592,1.0426155002723496,4.715116726078812,40.600508177675074,15.775691726047407,119.13630326440945,1.6913720752798593,43.812167710138354
A001,2025-05-11 12:15:14.317747,-2.4013972642671595,1.7322571368817368,1.1091180199692454,162.04444396465158,-25.662176694769386,-151.8459635120059,133.0,Stop,-2.049861663184036,-1.0428661755567168,0.388207283906835,9.51255775714987,-67.15296853366522,-20.26589952825937,119.5080490594484,2.3324252600223305,70.786415516369
A001,2025-05-11 12:15:14.417747,-2.8119752359396424,-2.359710168789747,0.2999849129241472,32.90666864360898,-169.56470516624708,26.415643680561036,107.0,Landing,-2.1752602684321043,-0.5195995775680249,-0.37347959326947966,10.078870642678858,-102.6906908689328,0.8581960919460996,120.26671387373517,2.2674276092120156,103.18768397974056
A001,2025-05-11 12:15:14.517747,-1.7157618493802056,0.5741609748814094,-2.4384652075654643,-107.17892368582466,-68.43519815858335,86.69253294360834,83.0,Stop,-1.176788393944274,0.5319969188301376,-0.9668978624598222,11.842772823502102,-39.66060625413551,55.971376734258364,121.38211643516733,1.6133019315044772,69.61328874663896
A001,2025-05-11 12:15:14.617747,1.9477888079346792,1.4697911907653598,0.8005921876917608,64.3057217957707,110.30230560059393,58.49944501006965,127.0,Start_Run,0.19027110709230974,1.1773943093456574,-1.1903048387187671,23.120715929660562,41.653910700091366,76.18769807923356,122.81460705298831,1.685018119472601,89.85644729413518
A001,2025-05-11 12:15:14.717747,-0.7442333870318762,2.3823448102337528,-2.8972674852170286,71.57540924794154,163.71991887307755,74.24214118487052,160.0,Jump_Takeoff,0.867544485703663,0.8380726661657864,-0.9027707564938559,28.31933308484844,63.69779742999615,32.69132292912063,124.51375479494604,1.5066500148440418,76.99426354384762
A001,2025-05-11 12:15:14.817747,2.3545952299629853,-2.2920767500536288,1.2521083128605728,-54.64836640308225,-143.5192257122651,-40.80075955127862,93.0,Sprint_Mid,0.6538902005893318,-0.0729213646748377,-0.19447595163187636,3.4598085473703475,43.92107839347891,-23.802287121968593,126.41864710649944,0.6860836797475371,50.07574537305669
A001,2025-05-11 12:15:14.917747,-1.3886753627419233,-0.4115657779812878,-0.7274913093559574,48.00188946333219,112.73443235550384,-73.04808485259332,116.0,Stop,0.3066403636369337,-0.6687434501496677,0.5327746477226881,-41.14985660408284,51.84082490589035,-24.97132689275127,128.45974532078327,0.9083473674677032,70.74142345362019
A001,2025-05-11 12:15:15.017747,1.0013716252220537,1.02192039498469,2.406787435717031,-174.2595528768081,127.09463836194357,7.560782261408491,164.0,Start_Run,0.5558231059890149,-0.6011999164055623,0.8348118662756671,-59.91501367881802,105.49499290682479,27.91482845859584,130.56177902537272,1.1693124119378846,124.49192761145919
A001,2025-05-11 12:15:15.117747,1.8619950454550132,-2.0625591233693843,-0.666249086232376,60.65475383044037,157.82617137934443,175.57771274808152,163.0,Landing,1.3185428159724386,-0.2991357891512284,0.6219135819806103,-23.35101328909624,154.21256841346332,66.40959656034845,132.6470151836586,1.4882250775187231,169.51997107601483
A001,2025-05-11 12:15:15.217747,1.4626855808691364,0.5459997545157229,0.2365091565208024,-26.16982443558362,170.1755904820991,21.66931952432398,122.0,Landing,1.9683476904823636,-0.3690312544933148,0.2538671300476354,42.89956635714519,152.31725997827846,45.37204413245292,134.63820365501442,2.018669169809354,164.6193878912166
A001,2025-05-11 12:15:15.317747,2.818856935058122,-0.9519923950126908,1.779321738607922,126.55108990349773,44.34236749130139,-54.86692239728536,105.0,Sprint_Mid,2.1012381394618282,-1.006770060694845,0.27130284930486587,84.30656764958039,109.97425503848612,-3.3848563170778814,136.46083140068893,2.345717994534178,138.6123781356143
A001,2025-05-11 12:15:15.417747,0.970975738068621,-2.587316053814046,-0.8276648989650512,156.737613863803,130.53212688289096,-77.20454236696796,99.0,Landing,1.7702603008809281,-1.8718305371726682,0.9833612182050653,79.10448169889158,68.12472166940005,-24.317524825656356,138.04512964923074,2.7576385510499564,107.19066536331374
A001,2025-05-11 12:15:15.517747,0.5160103641042686,-1.3000335683302415,2.868918732504236,-85.26590654316149,-10.933602968748543,135.85141645670456,151.0,Accel,1.115590513729863,-2.3655018822339238,2.1066413831962962,54.863803314523835,50.6712389566486,-11.686807124146862,139.32888306575356,3.3582851675477916,75.59228024271756
A001,2025-05-11 12:15:15.617747,2.3856840500543117,-2.772301618560775,2.716595382919998,59.24859408325432,159.0081150391017,-108.12251280636782,172.0,Stop,0.16206925955323442,-2.137564015432482,2.789599638335569,38.64335155500383,50.539705446604984,-1.866837258675567,140.26164973256797,3.518140489969937,63.64790277286118
A001,2025-05-11 12:15:15.717747,-2.705812521805913,-2.572799409153011,2.323225885547352,95.69719690647968,-109.10117763183908,43.36847035713137,175.0,Landing,-0.9495707068356294,-1.4510870845291635,2.294980004212796,18.86502070965784,45.93927548106977,-15.433439250603797,140.80966355761794,2.876503341542337,52.00477944577321
A001,2025-05-11 12:15:15.817747,-2.022850250173033,1.4059404493111485,1.362074728198344,-26.97545749823732,152.9229274970449,-119.88796239755624,154.0,Jump_Takeoff,-1.8590059081603938,-0.9283064635529321,0.8258545825525673,-21.385510955202808,21.554946284108933,-36.10640864184312,140.95960418832692,2.2359990269167107,47.176567627771355
A001,2025-05-11 12:15:15.917747,-1.5842892648328395,-1.9888723435051312,-0.947887050132779,-120.81635182068862,-77.7013899462453,87.47471641341741,82.0,Landing,-2.21943416026392,-0.8101473881290038,-0.5376602330785826,-60.083830356595925,-14.151768195865676,-36.455845996556285,140.71960130446072,2.423077652175591,71.68938499327737
A001,2025-05-11 12:15:16.017747,-0.7497522330305886,-0.7876559683452413,-1.8328201505996808,-18.93187645668172,44.86880112774344,-129.90425957343945,177.0,Stop,-1.8425596952674494,-0.6730906933038684,-0.9434953743070075,-61.60794064198119,-28.681686061992867,-4.324441649464846,140.1171725581649,2.1767546562199147,68.09462725563758
A001,2025-05-11 12:15:16.117747,-2.785734305831141,-0.8090198659318277,-0.1249839156273493,-112.88993212433353,-136.73104507960608,133.30936025994333,101.0,Accel,-0.7615976720686151,-0.06912049813090834,-0.6533139471563274,-34.195431537600754,1.2911137122102836,51.095498285008674,139.19517910709877,1.0057970823735667,61.49588976227535
A001,2025-05-11 12:15:16.217747,0.6040675377312308,2.777019799456837,0.7615909855791454,102.45748512400854,135.92943811201224,77.2500496357656,175.0,Start_Run,0.5396791803740333,0.8009134267857269,-0.5252221318046739,-24.83491360788267,53.328688584743006,106.11170622084748,138.00737624158054,1.0993517283709935,121.32772212968864
A001,2025-05-11 12:15:16.317747,2.8693420114882477,-0.1726600145775405,-2.0235053533057163,-107.24964660812202,140.25650224478204,148.20588155870496,91.0,Accel,1.256273912432288,1.2716174442601542,-0.750476252949162,-53.01220895135231,76.66148728583994,133.39545225057321,136.61477588495669,1.9386721419170567,162.73175661779663
A001,2025-05-11 12:15:16.417747,1.18894586411907,0.5044314596026203,-0.3086708637257702,-99.56616597011909,-68.51872796754256,72.22476893842838,109.0,Jump_Takeoff,1.0522895815089381,0.8797913951808579,-0.6130398453771455,-80.29397933429188,51.80755235411551,111.2899135253176,135.08343176218236,1.5023861402470975,146.68534504418898
A001,2025-05-11 12:15:16.517747,-1.5782618244710591,1.4633288647117144,-0.1593727929703532,-73.87499375729664,108.7006592670391,70.81689612709019,171.0,Accel,0.4241008672404969,-0.230301515007499,0.38177008534889767,-61.77628929243959,11.784234718565704,34.05260312956699,133.48366773247122,0.6153444007027248,71.51753551783808
A001,2025-05-11 12:15:16.617747,0.1626589521218076,-2.760434047168973,1.9551325251567129,-1.899540682957536,-55.20825120940964,-65.21264257864469,167.0,Start_Run,-0.06090419622341786,-1.3381550658929429,1.6238515167877785,-6.053189838443922,-5.019719516290138,-73.46820838255711,131.890008278496,2.1050563056760585,73.88786324008362
A001,2025-05-11 12:15:16.717747,1.7465143291681793,-0.8704929578117566,2.7248284763028554,126.26304645097343,-73.93741211343479,-177.28520662224048,159.0,Accel,-0.42427535487557605,-1.5957582694270611,2.0221857619024672,38.3450110048013,-3.86595393165796,-154.44149045166336,130.3802562426933,2.610687512292635,159.1774463976956
A001,2025-05-11 12:15:16.817747,-1.959228011311123,-1.7448349942282768,0.7151026711071058,-91.42731856287725,135.82088328649206,-142.59911241084697,105.0,Stop,-0.8439700463349176,-0.7240030788004377,1.3299385601434226,43.27148045546511,-15.535375551744753,-154.4841866813409,129.03203450369006,1.7335519810433824,161.18043568912708
A001,2025-05-11 12:15:16.917747,-2.4697305242345764,2.0738587223179223,0.907377117993966,164.78806792221013,-58.93324514288726,-103.4358739165082,100.0,Landing,-1.1416252934048488,0.6826209967288637,0.44197910743168084,23.27665752778347,-37.77068232326483,-72.61902678499493,127.91617486183145,1.4016509077237882,85.09964911813985
A001,2025-05-11 12:15:17.017747,0.2269696747604914,0.5461439291719303,-0.9147968240379072,-177.87710158675677,-167.3886049413779,58.97752611210464,134.0,Jump_Takeoff,-1.097197665365682,1.6677835492889868,0.2699877484498673,2.7252067789663044,-29.54339564493231,27.130822585510323,127.08800606420411,2.0145069045490764,40.20348880865399
A001,2025-05-11 12:15:17.117747,-0.7131401082421283,2.5968720898215407,1.2909884072306257,154.16832471770726,106.9109204024927,39.34707814490915,153.0,Jump_Takeoff,-0.7800551041841288,1.7181966698784437,0.6273834930650555,-13.270957528283347,23.3903742018684,70.03091192438299,126.57867002667503,1.9885411258798737,75.01704169041605
A001,2025-05-11 12:15:17.217747,0.0716155748731193,0.7768710837740782,1.0247831189374068,-49.53158919832296,89.1101951503694,133.2959275263662,83.0,Landing,-0.2823626425959409,1.01249591986384,0.5726005347959761,-29.760762809546407,74.21878902508405,43.508028803042535,126.3885857280765,1.1969745286025615,91.03340165940409
A001,2025-05-11 12:15:17.317747,-1.2872536782770954,-1.2139681239221776,-0.1866420869472964,-172.155978085588,104.15628373001891,-65.84803658131479,106.0,Start_Run,0.38752550272342423,0.004911123106933354,-0.2186752038299986,-47.355936064649505,75.45677390170664,5.785671556863004,126.48461756829398,0.4449932349612807,89.27364338692772
A001,2025-05-11 12:15:17.417747,1.8157825296002024,0.9684121987126986,-1.0507507974042678,5.873962198021218,-19.86146726473476,-58.00252095047728,132.0,Start_Run,0.9451623643158544,-0.9886527696770934,-0.8956458184464844,-65.86892108103426,46.01263440278816,10.79447190422412,126.80195760081793,1.6349151739494,81.07032695601546
A001,2025-05-11 12:15:17.517747,1.7077397026199286,-2.8695551529799506,-1.5632711154869885,15.459266087181277,78.34225320693332,136.9909892350185,122.0,Jump_Takeoff,0.9077456286455532,-1.73576088162324,-0.5331956582307682,-79.68118266940972,43.080016450523814,39.6714216681791,127.25106745708013,2.0300654113734216,98.8878171775862
A001,2025-05-11 12:15:17.617747,0.13893637886467,-1.708387355802841,1.312223697011838,-149.4789754572884,26.396536717088367,25.476766770924517,148.0,Landing,0.2915434150051594,-1.9422370706170224,0.49834913103085304,-66.9281429901848,79.37051094511784,33.55548021336209,127.72898240188903,2.026236476256182,109.1101488595494
A001,2025-05-11 12:15:17.717747,-1.493398657760793,-1.2904211668493144,0.8832548069694601,-122.0819876128588,154.91048867527974,19.570207083218435,133.0,Stop,-0.25377313931273415,-1.5153831799558013,0.7679555988725353,-16.701492727645174,102.63263810386367,-15.694655223863073,128.13317692378132,1.7177144087913077,105.16045105497679
A001,2025-05-11 12:15:17.817747,0.0797614947569895,-2.492804308238566,-0.1836337288120257,155.86021271669188,79.11410868695953,-152.1317972788945,131.0,Jump_Takeoff,-0.28773467186294577,-0.8594658932890331,-0.5158277971382226,34.02785764243515,66.33385221043713,-47.622231182904066,128.37561120238945,1.0428572190955308,88.46441062736984
A001,2025-05-11 12:15:17.917747,1.0419745193606058,2.3682111661451017,-2.8024884794162777,112.48240741941385,22.252996921791123,16.592877106701337,123.0,Start_Run,-0.1339050595598054,-0.49456535276001834,-2.3853929926998063,34.21628592206178,-3.034239280400155,-12.551771843957876,128.39470305409495,2.439800234188794,36.571953827130706
A001,2025-05-11 12:15:18.017747,-1.574373018101844,-1.47492555453842,-2.997461228639086,-156.1135780843269,-163.84017183224827,116.15626212783314,140.0,Sprint_Mid,-0.31191272985494994,-0.35114823536055884,-2.9950878437624655,-10.372933945772802,-34.62548168487669,67.50903757228963,128.16351560982952,3.031690258930832,76.57670595220135
A001,2025-05-11 12:15:18.117747,0.4214887496843973,-1.580067723121717,-2.1397459735905624,-45.370706660160266,86.14426634871734,149.8273733065995,178.0,Accel,-0.7978301385491406,0.09657015423410606,-1.5963889230345052,-43.620761535757055,-1.6186981016909003,132.51181740334138,127.69304135717938,1.7872650386144209,139.51620971070096
A001,2025-05-11 12:15:18.217747,-2.6053933809925462,2.669452120499482,0.7146985041110403,83.2442921750062,63.57001335115558,60.38999442755304,95.0,Jump_Takeoff,-1.2069289536574725,0.8560362741264135,0.5777946171706294,-36.41223643693498,49.94986677103704,147.93076423532173,127.03001234655582,1.5884968433800262,160.32576573972742
A001,2025-05-11 12:15:18.317747,-1.4611168417913645,0.1750467190910969,2.7628785093658648,-147.731563864502,65.89796329064282,166.4150680926619,147.0,Start_Run,-1.440365074650938,1.1233487349495448,1.5463426555598787,-19.48712667497046,65.14102133191959,115.55685094308339,126.24941816508569,2.3932696331568915,134.0764206193391
A001,2025-05-11 12:15:18.417747,0.1909281698516567,1.807285127058217,-0.1514696293881745,52.23804357110106,-0.0308203679304313,47.2580123908173,96.0,Sprint_Mid,-1.6756390177421185,0.3200821442321207,0.6189077643263018,-35.485155777473096,42.29544435659929,50.3468600983432,125.4429888498927,1.8147356605245253,74.71885448557052
A001,2025-05-11 12:15:18.517747,-2.7680196829314,-2.178591565815644,-1.2849711320164274,-88.79181751868154,41.46312587783288,-15.87980731167326,96.0,Accel,-1.7961307516050573,-1.00785268275082,-0.9876086240047691,-83.86447143971841,17.46256644308453,-22.504348811000362,124.70592248563801,2.284124230684042,88.56995264789104
A001,2025-05-11 12:15:18.617747,-2.7908045620978466,-2.456471987276005,-0.8815130555948043,-177.7741376530574,-2.1645844451494725,-50.15892084865104,130.0,Sprint_Mid,-1.3848539634334223,-1.7917773309299154,-1.5577922981078076,-122.65121282463122,11.607470415387512,-61.43936053363851,124.1245252499095,2.748636634354493,137.66934444377767
A001,2025-05-11 12:15:18.717747,0.9058114314448188,-0.6098680682045456,-2.4991842289082564,-75.34625187442244,15.741624538859329,-80.77126679416996,122.0,Sprint_Mid,-0.4110853903516615,-1.7017488341220968,-0.6425779632061892,-116.32467372945118,16.490410862345254,-34.25422981495831,123.76693643305,1.8648985847478967,122.37939217404295
A001,2025-05-11 12:15:18.817747,1.504982182118006,-1.6631589455982891,2.965797802824232,-119.5806523086687,103.9578176035776,73.81600985719243,135.0,Accel,0.5452745144015857,-1.3366719454253182,0.7475905291863323,-71.76504019047724,22.7116884958178,39.13901067843129,123.67799131306363,1.6257022436695134,84.84046171938384
A001,2025-05-11 12:15:18.917747,-1.0525419862237957,-0.5394619004330825,1.849276983099018,97.2574283110149,-99.7281090764347,41.82446937852279,86.0,Jump_Takeoff,0.8959922591819425,-1.2385128612460523,1.48159195063345,-24.963329945231347,35.2233209575542,87.70158248648806,123.8781062011456,2.12880974823202,97.75181712821318
A001,2025-05-11 12:15:19.017747,1.183646078255685,-2.695004014719908,-1.2420687764243614,-161.9222526285095,118.80600133492294,146.2667046865779,176.0,Stop,0.5577470824530977,-1.189097778593042,1.3870254907015998,-3.9886833004973283,55.115948154477934,54.74101068920586,124.36530964482002,1.9102028810824947,77.78338888679585
A001,2025-05-11 12:15:19.117747,0.5787366378436998,0.8178160309143339,2.095612502629087,61.16071242902643,83.8557439263081,-95.69927296920872,117.0,Jump_Takeoff,-0.07405745065707661,-0.6221753122123642,0.994566498571822,-11.497329140033568,69.0650654759358,-35.52131714719466,125.11921318545632,1.1754782623280586,78.51073696266741
A001,2025-05-11 12:15:19.217747,0.0345926540088328,-0.2656355959185221,2.9829768856767416,40.03511501359529,103.12013634999238,-59.75471852724448,109.0,Start_Run,-0.3879770368474744,0.5310204707652377,0.8159614513335698,-29.27822007140814,71.17960502656868,-94.26145103640208,126.10565232125636,1.047999051314011,121.69211763206421
A001,2025-05-11 12:15:19.317747,-2.388975950401204,1.373598070308223,-1.916609899948652,-154.92662282653288,-26.29639962126828,-165.75445374791263,133.0,Jump_Takeoff,-0.03571018240716457,1.5672065956984638,1.1021996653256017,-31.74521019689925,74.56409791342477,-62.82390238555239,127.28092017801704,1.91631308323358,102.53977657005855
A001,2025-05-11 12:15:19.417747,2.491162268547398,2.389635986955321,2.825904347261224,60.27408216251618,169.88908684524648,119.69208001148718,161.0,Accel,0.5620488643764536,1.5572299091488706,1.765349983240716,-9.506809379796357,82.28798309768456,20.90168615935825,128.59489122174887,2.4201910005664136,85.43168072309541
A001,2025-05-11 12:15:19.517747,0.2748389137134999,-0.399996746850352,2.77788148839163,-39.337539764511945,-35.780067432956315,59.67807158188407,150.0,Start_Run,0.506124197337319,0.2267585403992909,2.28942055498003,15.880064707958242,67.76755982843129,67.45383563322348,129.99266217375498,2.3556374118992576,96.92594369859333
A001,2025-05-11 12:15:19.617747,-0.4467942136728027,-1.1245516375328504,1.5703253465711278,119.69523886307223,171.10783391395677,51.12489048308683,81.0,Sprint_Mid,-0.48971910902206983,-1.630626672409601,2.144316671857362,16.205256157454695,13.26024347613983,37.59460162249603,131.41466963651118,2.7380398353056172,43.03252787519475
A001,2025-05-11 12:15:19.717747,-1.6712883574397432,-2.992459227637133,2.6025727188405074,-69.83451316276063,-109.21246471223915,-83.46717685232068,99.0,Sprint_Mid,-1.5923637842383431,-2.7263327860692126,1.4289267212348888,-5.901318191175442,-44.11910697353453,-24.098561712924752,132.79584905685877,3.4655943871735566,50.616813739777456
A001,2025-05-11 12:15:19.817747,-2.58388997388842,-2.6839610627672945,-1.2425354067715644,-73.5241927690455,-137.64735798687536,-34.27502604460767,167.0,Start_Run,-1.717042993749529,-2.43566845645698,0.7489346043173793,-23.59322947997436,-43.14189613843341,-54.4485314554771,134.0650204760629,3.0727220039743104,73.36556588326833
A001,2025-05-11 12:15:19.917747,0.1982597273314987,-2.412369807702865,1.7430502870389375,23.97661831457623,80.6284345584661,-29.334100805033813,157.0,Stop,-0.6851920378652349,-1.3488137353443688,0.3932314406999823,-25.830367140857792,20.357153990552817,-42.70872099497486,135.1455860097622,1.5631434954483627,53.904141160519316
A001,2025-05-11 12:15:20.017747,0.7845210178885851,2.745255344682437,-0.735909260161125,42.55212343124103,136.14517648955143,-18.01663711889401,171.0,Jump_Takeoff,0.729494991468298,-0.4744878134468059,0.02838164842468491,-27.30158893062344,79.50041049593776,-26.483809376990443,135.95773966875637,0.8706934854781937,88.13106255047717
A001,2025-05-11 12:15:20.117747,1.5047380496910492,-2.136805543158937,0.7323570556926482,-151.08368195176797,70.06402347857153,-42.53792523799439,80.0,Stop,1.7090899881707005,-0.019652755300887198,-0.5960452287870955,-42.382004192085134,76.06539846895821,-37.33942478759651,136.42172343159214,1.810150472534287,94.74392733599282
A001,2025-05-11 12:15:20.217747,2.2345941452108704,-0.3372669690545646,-1.5668407222006488,-85.39560995204907,-93.40635841018192,-109.95978197186209,105.0,Sprint_Mid,1.9934826109456232,0.5887991975733559,-1.0302440222665765,-70.7415206589383,21.854576084570972,-67.1282798940692,136.46202619180553,2.3199267575985285,99.94093857129714
A001,2025-05-11 12:15:20.317747,0.5782789962141943,2.829903627716959,-2.1812932903772486,24.589837654141263,107.3250172823146,9.194663205257823,109.0,Accel,1.6477359849914257,1.5243909330488357,-0.6696214997478578,-99.66563342510797,-32.59748251276656,-81.01002817492632,136.01327298779208,2.34247615695907,132.5083356513864
A001,2025-05-11 12:15:20.417747,1.864032340574468,2.121926876695867,1.217695747072019,-146.53891207666572,-174.21116889387386,-119.31851805976017,175.0,Landing,0.7351052943360613,2.1097701616395077,0.2760008401976364,-102.86431371804855,-58.749697147335816,-55.578042898328405,135.02857628363918,2.2511522366324104,130.84919871362308
A001,2025-05-11 12:15:20.517747,-0.5745854649631239,1.6567798356863914,2.72056190040488,-151.57909265881608,12.793204006990152,-67.49198232324969,165.0,Jump_Takeoff,-0.44476012036672846,1.7943303665267512,0.919008996974454,-58.26870247960898,-59.13194344977253,-9.192588929525893,133.48980930040335,2.064463747666363,83.52444023177604
A001,2025-05-11 12:15:20.617747,-0.5983379555131192,1.4408592405657172,-1.4729003007811805,71.50068045313927,-3.055744654256358,138.75870546388546,109.0,Landing,-1.106759269290148,0.994637280885384,0.7673798343181762,11.351939810850523,-38.207711282227756,8.786698548939842,131.41754397167946,1.6742434741712224,40.81546043211063
A001,2025-05-11 12:15:20.717747,-2.4200113970059736,-0.989081144266076,0.041282664193218,83.78647716088528,-108.69223677889256,-101.48683377367227,165.0,Jump_Takeoff,-0.5810268443611645,0.5283009729165523,0.14615180063994374,41.55572157061648,5.030884050230326,-26.75342234583656,128.8776227198416,0.798783112417361,49.67829905296848
A001,2025-05-11 12:15:20.817747,1.8592895142342645,1.50692222187347,1.5623242930830212,-39.93814453728507,90.58339830413291,-40.76272490293525,169.0,Jump_Takeoff,0.7480633675167768,0.5405168571986578,-0.4251798001904239,-2.878532964190671,55.00502441965526,-77.94301711110279,125.9819101742902,1.0161373613967863,95.44083287468979
A001,2025-05-11 12:15:20.917747,1.8216716577361092,0.828836930946145,-2.611141046076825,-56.81772623273754,176.1538260633156,-109.25629602914924,102.0,Accel,1.6073838119895183,0.49399080892576513,-0.7971976998323699,-77.87884579972224,76.73913973250681,-83.82471664994115,122.88214070493568,1.8609765745347544,137.77007407788182
A001,2025-05-11 12:15:21.017747,2.0576438392635694,0.5193513644841241,-0.7663784512399365,-151.11771742162594,-49.800635087005816,-114.45569583325576,82.0,Start_Run,1.1767821287407367,0.1274039315768393,-1.106469164536215,-104.56936177194385,48.72225391031748,-39.67742272529754,119.75739711219923,1.6202845282154261,121.99552172770555
A001,2025-05-11 12:15:21.117747,-2.273707342965968,-1.6703448705650947,-0.7220759047879608,-50.25657415697475,-38.970688462123775,105.66765527051685,86.0,Accel,-0.09407277330705931,-0.15371652406673975,-1.41556145225737,-55.22801638131887,-14.167529357382733,-8.190434357183182,116.79731594737991,1.426987274493307,57.60152685881559
A001,2025-05-11 12:15:21.217747,0.0113890824159881,0.7434421971473792,-1.606928698898369,78.73033937311402,16.960075105781158,-19.158781308703908,163.0,Sprint_Mid,-1.155493667418964,-0.02391380277527027,-1.5067152475782026,21.872987455060574,-72.63605231617417,-37.3833604669035,114.18401557484823,1.8989282036699404,84.56913926537075
A001,2025-05-11 12:15:21.317747,-1.562953535758171,-0.2003624044429077,-1.7997046011217506,20.94920470791277,-84.5957568658797,-166.75598998122092,89.0,Accel,-1.370687502775062,0.15300157617282784,-1.086738025775306,57.485197060103445,-86.13542704617421,-94.86017688660813,112.07542690682544,1.7559024031081896,140.43615215614642
A001,2025-05-11 12:15:21.417747,0.609372412931402,1.519126223089045,-0.4000830586026191,17.055991259908666,-157.654750784936,-147.65114951998314,121.0,Landing,-0.6573454413709585,-0.11170057825300386,-0.27288896908982646,25.774443160127003,-38.632479782705005,-113.14309525340275,110.59156888326234,0.7204501633868535,122.30351760230079
A001,2025-05-11 12:15:21.517747,-1.2277729037550842,-2.689782000955979,1.605570709519058,-53.09023439576819,140.30090675998895,-37.77956150282984,121.0,Start_Run,0.7429726263632824,-0.5695590076277209,0.3350562260093469,-40.34676541377272,34.97364601384947,-80.34133477234289,109.80440288428882,0.99431808858265,96.46630223999327
A001,2025-05-11 12:15:21.617747,2.6373882194080758,0.9069147038128786,-0.5190665196149711,24.2637367629394,15.64026787508135,30.535213195210616,86.0,Start_Run,2.103121713875709,-0.4426068047860835,0.279615072727275,-79.41181506933583,62.87183717525932,-46.954146652873845,109.73173246303689,2.1673039279055266,111.64137302227296
A001,2025-05-11 12:15:21.717747,2.386644409530306,-0.591293954325768,-0.6892495744846667,-178.72236292868232,40.83345414764349,-169.28211333343248,86.0,Jump_Takeoff,2.3069674399148954,0.5508102168983382,-0.20678622326091484,-52.432665397328286,7.16631331752192,-50.60594193115141,110.33585845146165,2.3808089394148353,73.22227670574132
A001,2025-05-11 12:15:21.817747,2.195795721004923,2.6684207417035584,0.9868617774383496,-6.4746385587704935,-53.17881094591232,-3.266966164920916,87.0,Sprint_Mid,0.8978660820181988,1.7634357681078876,-0.45714388762584834,16.50440664153854,-82.14058165578112,-71.05690575853194,111.52780337491808,2.0309726102226593,109.85697269320777
A001,2025-05-11 12:15:21.917747,-1.9800222195119928,2.4308032490651144,-1.7961379022568258,176.25134669064113,-177.3682240842213,-85.14598422855491,102.0,Start_Run,-1.0619479836791816,2.3058126379143395,-0.11524249650496816,61.33759233998973,-110.9788300262809,-63.35622606957453,113.17746861717217,2.5412174787307094,141.74841208933506
A001,2025-05-11 12:15:22.017747,-2.916039538977224,1.394207400883893,1.160554812597578,105.24634716777496,-87.5885232727565,-20.03933985013083,168.0,Sprint_Mid,-1.884302430800947,1.91836629016678,0.4506117869254133,55.122259439640835,-48.34550151516339,-11.856615050451436,115.12891372144932,2.726495159813552,74.2720022817369
A001,2025-05-11 12:15:22.117747,-0.3613889766711384,1.1839546219074943,0.8038404506426531,-138.72679091201647,101.17552358770848,79.44348927330657,152.0,Start_Run,-1.1520993250761598,1.0248687383205197,0.5082465960843456,44.66523570730616,33.059845652545405,53.90270045941372,117.21840770835121,1.6235773428016789,77.41729646646557
A001,2025-05-11 12:15:22.217747,-0.2983231028127555,-0.2338770359160102,-0.1837076965044284,137.32990697603418,114.70587880918164,46.64518602139324,116.0,Start_Run,-0.18798592893576754,0.13371051119091726,-0.244001006420016,74.61779897578474,43.648687377026945,85.41594201387134,119.29190639695506,0.33578817938510064,121.52739190752465
A001,2025-05-11 12:15:22.317747,0.8293934781612142,0.3928327893015018,-1.6442837348804769,150.50756241671087,-111.17410592496614,106.18233581688378,90.0,Landing,-0.396811483988017,-0.5314723676857145,-1.3492940225384336,111.65196008186984,-16.46888561667035,56.951391550043994,121.21895070265158,1.5035014435297953,126.41536846074077
A001,2025-05-11 12:15:22.417747,-2.730685887019661,-2.0292229506585557,-2.81913723121355,83.75120727930755,-90.49891715217372,-47.25344630447671,139.0,Accel,-1.5986302199109106,-0.8570998036484846,-2.1241016124652394,93.3964817853628,-70.28517021751367,-8.939160252697278,122.90148244854507,2.7932143336135353,117.22975965347655
A001,2025-05-11 12:15:22.517747,-2.957219878673964,1.090190820497007,-1.3879932922330345,113.465963625391,-50.69784579865191,-7.215662353207421,138.0,Sprint_Mid,-2.401309610298036,-0.6566270550012776,-2.2858154180643138,31.295779110258092,-67.57682218664131,-56.64453687791454,124.27763686018449,3.37970398989762,93.5663200359853
A001,2025-05-11 12:15:22.617747,-0.9869139235240764,-2.1579481636917253,-1.393738221148351,-160.93591183752318,34.20303181081158,-127.70059789663038,101.0,Accel,-1.9371099158862404,0.07001510161886312,-1.8855582393024863,4.725226241456974,-32.93022447338756,-48.378769589010304,125.32131212824324,2.704186904502163,58.713139873857834
A001,2025-05-11 12:15:22.717747,-1.6909501423321671,1.7878594760291158,-1.8607080826447937,79.6919629324675,-60.09311533492897,29.923198160043,160.0,Landing,-0.7125870856533078,0.8306465729992977,-0.9768413491348383,45.37191842967846,-12.010911227206067,-3.699919588000433,126.03837231456514,1.4669604988734097,47.080382065727655
A001,2025-05-11 12:15:22.817747,2.2717295808454345,1.7020415581176227,-0.5519149980103872,173.4508881784177,-43.34628822392165,49.90514367687325,81.0,Start_Run,0.22842652093670057,0.9933807132498164,0.22274777742102772,79.46573914993206,-10.918680962570237,21.67062879008581,126.46031266108548,1.0433601915302149,83.08813058894233
A001,2025-05-11 12:15:22.917747,-1.6802908935942251,0.570473613023128,2.859963823260853,-18.2934833788901,67.38252933942087,14.192881575975065,167.0,Sprint_Mid,0.45224974609195173,0.5302901259903234,1.070985178679829,19.084588543818207,-3.370580106961345,0.8291571336075638,126.63632011882763,1.2777897728166918,19.397675935443736
A001,2025-05-11 12:15:23.017747,1.0306363581733793,-1.2485423172579382,-0.0618597470347106,-140.24362632886206,-10.228656074705071,-92.22341306385424,121.0,Jump_Takeoff,0.18513837927064558,-0.0007316038504963512,0.9299722240700787,-113.07269874631427,22.403960557448233,-33.067123017451635,126.62474504445153,0.9482220690666318,119.92000364862284
A001,2025-05-11 12:15:23.117747,-0.726705722692591,-0.6731007443344135,0.3327900354520365,-129.18895146873228,-40.58674550840374,-19.088795015013943,84.0,Accel,-0.3973918252320156,-0.3628518819534622,-0.1524721914557833,-184.35835991052753,38.90571999321958,-25.90050490823735,126.48499765100404,0.5593116485160408,190.1906834510882
A001,2025-05-11 12:15:23.217747,-0.8912713842856936,0.8674733752852135,-2.1755070010411908,-156.42670254112113,133.75512504044292,83.06456486604714,140.0,Stop,-1.4183907190501608,-0.9857932148480435,-1.5512914736642722,-80.26846359033445,5.432317994697227,43.1165541455733,126.2708595272556,2.321664431090665,91.27745377329778
A001,2025-05-11 12:15:23.317747,-2.864630095456034,-2.114139044177047,-2.841967789508688,176.37233127146226,-79.6064943631597,152.47539249704135,125.0,Start_Run,-2.8597612534644306,-2.116071832917874,-2.8416212600446884,176.1637823365959,-79.33374468819153,152.5763327741812,126.02606352202794,4.553109466553909,246.18500883726526
A002,2025-05-11 12:14:53.417747,-1.3268968194794115,2.17544612436874,2.9164312220331263,-88.43432356885033,110.24861385093573,90.05987389552467,121.0,Jump_Takeoff,-1.327129751817523,2.1777888366832814,2.915349691154161,-88.51632247949682,110.27887921862268,90.05102574936801,120.69589694825129,3.8734095338673162,167.64771929711176
A002,2025-05-11 12:14:53.517747,-0.3669131417318163,2.6044610956289063,0.2084382924810661,69.74138212647918,142.73469815129874,-127.12612470004537,111.0,Sprint_Mid,-1.2024162056308974,0.7101720512131837,1.1343630673523717,-11.133482998775346,84.26101992656842,49.05678836398976,124.94751518784165,1.7991466428452205,98.13481750805298
A002,2025-05-11 12:14:53.617747,-2.3560880371559096,-2.1621696046205265,0.0755038016053988,-64.37546677171295,-27.657777770368227,173.69633944586224,127.0,Landing,-1.2153654035908545,-0.4557968253536792,0.08966879052748994,7.386199094158031,79.67108080363778,-2.7646737017100933,128.85877172998082,1.301116559821877,80.06048010195322
A002,2025-05-11 12:14:53.717747,0.1733637991910601,-0.495042885890403,1.7762205594105858,15.355460270563723,157.2141756176012,-109.38931241004052,140.0,Accel,-1.2282243368869077,-0.972061527341474,-0.0272656173873638,-31.136604463761298,85.5354815856832,-65.97241914820799,132.22913664301845,1.5665829210578792,112.41960165333406
A002,2025-05-11 12:14:53.817747,-2.610559822711981,-0.6710313122380986,-2.1255529447561337,-97.2037392150797,42.51262433939655,-155.7274081666746,132.0,Stop,-0.9482109844827983,-0.7895566436063779,0.4160779451734214,-70.69533543370932,74.39039718014033,-117.64379604839077,134.90460165741243,1.3021615187896403,156.11477954818713
A002,2025-05-11 12:14:53.917747,1.2690349642691725,-0.7341517021421318,2.767787844797656,-62.7665448577183,174.06853982926663,-106.04762762570542,163.0,Jump_Takeoff,-0.3227630476968975,-0.4037305897694632,0.8181624419374619,-64.63253535700771,47.35875042866483,-122.46692741733409,136.78702603032121,0.9677624478513615,146.35014239788762
A002,2025-05-11 12:14:54.017747,-1.0461210468752806,-0.1498994580394868,-0.669218144334021,-56.68587737654123,-172.13350420519964,-50.39246237237873,135.0,Jump_Takeoff,0.27693148404205703,-0.4626027507153622,0.7174180581399379,-25.24509159104769,36.30932110745695,-66.70531636743121,137.83962108959105,0.8974302323681964,80.03299744732726
A002,2025-05-11 12:14:54.117747,0.5410004268762467,-1.005726360734276,1.482324492535963,41.86568022670676,134.57654544720242,0.3462574893711405,132.0,Landing,0.40241741967230005,-1.0581294855281587,0.15353500865204014,-5.382485862257445,50.52412698630759,26.546206898599998,138.0878773311762,1.1424319615108727,57.32677962775525
A002,2025-05-11 12:14:54.217747,2.2069949804069804,-1.1907359202668075,-0.2755431341259493,9.4113934880927,126.18237757615032,155.378698253158,129.0,Stop,0.1144488345807395,-1.5342230001531254,-0.3317166980847934,-33.23288740052749,52.40228895991602,114.57627185865455,137.61579220100768,1.5738407536101053,130.30021782883938
A002,2025-05-11 12:14:54.317747,-2.4857394393702963,-2.1641647999634523,-2.9721550470119587,-176.56405467034492,-43.096359778973294,111.29896978119945,131.0,Landing,0.001645056538219461,-1.1897961423235628,-0.3273579818262292,-78.90924446588487,8.721153958298107,159.28490047324203,136.55783369203976,1.234010054563733,177.97305107041274
A002,2025-05-11 12:14:54.417747,0.6282587633243519,-0.123322627577965,2.606254077842525,-93.40241464274868,-81.3511101461451,151.46565684950025,176.0,Sprint_Mid,0.35023441664183214,-0.19588247521996008,-0.0923597443714749,-91.2221099396118,-59.1391442822809,142.62466979899608,135.0873372081203,0.41178199703132595,179.33406860813625
A002,2025-05-11 12:14:54.517747,0.6573649314288592,1.0904157123936642,0.0332503405784367,69.9234763763294,-117.80832743569188,126.94760379775435,136.0,Sprint_Mid,0.5899013023961369,0.46008628057631396,-0.09999507417083303,-50.617889856932884,-98.04139946171763,77.1043625941239,133.40196389415573,0.7547595292552692,134.60820745046271
A002,2025-05-11 12:14:54.617747,2.41368942264374,0.7811186347271919,-1.4260967130119615,-79.45185988315575,39.67013939350685,-33.503409131161646,125.0,Sprint_Mid,0.10971714292110145,0.13143549319334097,-0.2459124109099221,21.39423965332007,-78.23001024517256,4.3524696986483,131.70686116816452,0.29964321143866507,81.21940646040913
A002,2025-05-11 12:14:54.717747,-2.636100056799486,-2.1675648773415315,-0.6398974406180242,71.88711117651664,-162.71086046403127,-59.55919458081004,92.0,Landing,-0.6470955126798734,-0.6487861306630588,-0.0828659717700217,83.07110347510013,-15.473167848581927,-32.98505932618767,130.19665466445508,0.9200667449422144,90.70965381145109
A002,2025-05-11 12:14:54.817747,-1.8889443669296453,0.3290531422296476,1.3333995371231635,145.43142187556776,138.2106227163402,3.1465041948511043,150.0,Stop,-0.6980789057020306,-0.8073430846505741,0.3092729093443991,95.25084919907248,41.87320340355145,-27.352897544113787,129.03816625381074,1.1112005882709015,107.58378335268948
A002,2025-05-11 12:14:54.917747,1.2739601162480287,-1.589170151881378,0.8034193622886736,51.578637771706525,-33.544320446632355,-2.514433787662483,83.0,Jump_Takeoff,-0.00321359453155556,-0.05871602427703873,0.38201986039240393,49.90833736838313,44.93499434470112,-6.5274519247855896,128.35611696678467,0.3865191747261018,67.47298336567798
A002,2025-05-11 12:14:55.017747,2.100504127983817,2.690182386128882,-0.8325018325583722,6.712664191800911,100.47429209267852,22.34812952363353,158.0,Landing,0.45105852390323015,0.7838851008564546,0.05951191508685411,-14.701690188530833,-11.159048506372157,4.107270813969248,128.22363144064315,0.9063505455218747,18.908562386030145
A002,2025-05-11 12:14:55.117747,-2.466891089571415,-0.0564967223729473,0.7224862482812018,-154.76052986177694,-105.49686529849346,-59.26525744337103,122.0,Start_Run,0.08843214087774144,0.8567295909532726,-0.009808554194800454,-50.579906989928624,-70.50192916151852,7.897243097160711,128.65836280981586,0.8613373574219191,87.12758148336988
A002,2025-05-11 12:14:55.217747,1.0566278595249503,0.1741280433571446,-0.7073491781680383,-17.75654843700599,-175.3283985659139,97.38910055074685,150.0,Jump_Takeoff,-0.5487475991326021,0.29115803040253235,0.649842740935742,-54.90585998985526,-70.28870165003443,23.22916291022545,129.62405234595107,0.8989952803928143,92.16696290093829
A002,2025-05-11 12:14:55.317747,-2.0762340353734428,1.1443373653738131,2.761130580059552,50.742799145343184,42.14755080224148,19.25637498015621,100.0,Landing,-0.686246364910398,-0.011325751563766175,1.6065069639115834,-61.94668889136231,-15.76718086537857,54.783939835029365,131.03674073521182,1.7469765227665863,84.1859627306887
A002,2025-05-11 12:14:55.417747,0.2602193234639092,-2.0960506080664905,2.271785557038044,-165.35807338675863,110.64138145913093,64.95178551323332,103.0,Accel,-0.2398754090835063,0.4374958681949254,2.0023686680485184,-81.32340603957533,27.847140503010554,83.81859821174865,132.774744382315,2.063594710536206,120.06047230564522
A002,2025-05-11 12:14:55.517747,2.5631026132760857,2.939609708777997,0.4876963917663577,-140.80261822878032,-14.713233200842891,103.536412726192,179.0,Jump_Takeoff,0.3911720821788635,1.0453628688408438,1.6077690717008803,-81.4758891569074,21.396503172601363,86.28272336276801,134.6915651963457,1.957222652981826,120.58540215473742
A002,2025-05-11 12:14:55.617747,-2.4144147609075564,1.3674142986755573,2.813644263045598,25.0498648019134,-95.33920695779284,123.55430094914236,157.0,Stop,0.8629771957913489,0.870612487437593,1.0587748459666992,-41.178136735632194,-8.345825363246652,63.05353075115129,136.6306442712059,1.619783910955403,75.76964752589663
A002,2025-05-11 12:14:55.717747,1.3934415012353352,-1.073881136694602,-1.408055579611997,54.83491255927834,21.24392133486305,-49.5321689472114,95.0,Landing,0.8570687010068258,-0.1734297690996917,0.9759749657412822,18.56998901466342,-22.94484675179488,47.112295646221376,138.44034226365562,1.3104090112667865,55.59567326262937
A002,2025-05-11 12:14:55.817747,2.2319542439828,-1.4960277917311977,2.1490703178637744,-0.8502437384309758,34.17488546429709,122.61622410149226,165.0,Jump_Takeoff,0.10377928131283934,-1.2467615316540843,1.1254475428686364,64.39622498173696,-22.608665081401227,67.21140920681313,139.98731299431458,1.6828002340715604,95.78830333724018
A002,2025-05-11 12:14:55.917747,-1.9041661457892092,-2.3025254838603724,2.0303945309201525,99.57545359080768,-62.18734546812088,56.951066956812014,171.0,Stop,-0.99637036017169,-1.6078537464300284,0.77151635124637,83.91661782574933,-22.71781364290178,106.45565141106961,141.1667836233843,2.0428374983777475,137.44418329409817
A002,2025-05-11 12:14:56.017747,-2.1209799569674885,1.710588053706152,-1.529243973272955,85.61438193130056,-16.1994173299299,175.05484723899804,160.0,Stop,-1.2979365534450724,-1.2234528392204638,-0.223704802464239,82.36366462141073,-17.593572272202184,114.89659186711751,141.90879726690076,1.7976428970212774,142.45888479784054
A002,2025-05-11 12:14:56.117747,-0.3336898401716639,-2.728012187712036,-0.8303019523090054,92.33418567596992,-47.19082559269677,77.46190293944903,90.0,Sprint_Mid,-0.1809164358934569,-0.4954574072794466,-1.1060302557454176,69.05242441030528,4.742059253746651,67.48640810398265,142.180028266839,1.2253618754591382,96.67026286135909
A002,2025-05-11 12:14:56.217747,1.9827575425761683,-1.579189379637296,-1.6736174694888923,39.19902592293735,114.47253951317782,-90.1366783763127,146.0,Sprint_Mid,1.4100831025197862,0.001467900007758094,-1.185625239751981,52.50516685422812,34.086829751585874,-4.481052300942784,141.98156325130222,1.8422930602591983,62.759735010815014
A002,2025-05-11 12:14:56.317747,2.694582533570558,2.9383387953282893,-0.0950145156479891,-11.490616409364575,52.18695746827064,20.02851259378912,149.0,Stop,1.86219578948694,-0.3094304368123634,-0.7092136751261374,32.87949492195644,48.14100561551773,-44.59066663591573,141.34386157878413,2.0165575594548995,73.39581159052359
A002,2025-05-11 12:14:56.417747,-0.330599701076772,-1.9859919214409811,-0.2339409069622728,38.4364051093996,-60.85730917560588,3.692815632032307,163.0,Stop,0.7309317560318508,-1.3232090673148424,-0.513203330393788,-0.3301213408597201,37.380849432244176,-24.9847511332964,140.3203402685125,1.5964088217393737,44.96303674762812
A002,2025-05-11 12:14:56.517747,-0.2533238924061609,-2.902164589280971,-1.9556151755561493,-4.135089601528904,116.15524525813288,-79.65827757823531,95.0,Start_Run,-0.8132999435057342,-1.8672430095781378,-1.000419993711016,-47.236305510438775,3.6791735150808997,30.11625276200754,138.98060453967753,2.269117321502262,56.14083679866829
A002,2025-05-11 12:14:56.617747,-2.106103449540045,-1.424834574544252,-0.8319634813830938,-128.27648291228272,-163.45357307600028,135.77752872648398,170.0,Jump_Takeoff,-1.3948876947592133,-0.8047668547203626,-1.6643444789141093,-80.04376616196325,-49.33178809169676,66.35394135429654,137.4038991680512,2.3159023977575255,115.0802995780101
A002,2025-05-11 12:14:56.717747,-0.9145205738549986,2.969098842370755,-1.1856088810261338,-94.05415966946404,24.44059738994588,120.64541880355348,106.0,Accel,-0.9055509765388123,1.473418445486352,-1.5956362262200883,-70.64557635229902,-103.33571710665672,50.527577907061726,135.67325456412482,2.353091467205578,134.98927371183862
A002,2025-05-11 12:14:56.817747,0.436659099581961,2.9318150309357005,-2.559333179044661,-35.8003447265404,-164.49085079786707,-108.27848064384904,112.0,Sprint_Mid,-0.3650657073987533,3.2506149879645005,-0.46030251525870786,-33.51365312669118,-116.18608141587482,5.004058689190008,133.8707697994238,3.303278549600608,121.0264891006813
A002,2025-05-11 12:14:56.917747,-0.3114533232244811,2.839842477002259,2.942305066189314,54.06412534596433,-134.23705493146252,2.221230835872888,178.0,Accel,-0.5123647799196371,3.1901365810662066,0.9953847128206357,-11.137680754657946,-58.32942632914525,-19.286046108164317,132.07417829856132,3.380869681025269,62.43653964599657
A002,2025-05-11 12:14:57.017747,-2.0897781320908777,1.5722193078469555,1.0841915764834609,15.456019461466497,111.81144398795028,53.3793687937343,136.0,Jump_Takeoff,-0.9090407424312323,1.5355885800784974,1.5707130299815375,-12.408475129126481,36.6320993671554,-3.570122840582672,130.3542946679396,2.3772940039509636,38.84104447838842
A002,2025-05-11 12:14:57.117747,0.421436654674804,0.4101670946146476,1.094702521142401,-149.25683083137082,45.541190615794704,-78.92929773131718,131.0,Sprint_Mid,-0.5881040570825213,-0.2541917451448112,0.8404288817879471,0.539290722860181,89.01679790730614,20.968210477117434,128.77247164626132,1.056787836133642,91.45461713203245
A002,2025-05-11 12:14:57.217747,-0.158389191031893,-1.4830233288267582,-0.8935425675405706,138.63028297444075,163.75789395631813,162.03875136701015,137.0,Landing,0.6292428406069724,-0.8472232506279087,-0.3983869485099073,50.12519903955636,61.08916210973606,15.737091572649302,127.37725486502242,1.1280274595960365,80.5734283569385
A002,2025-05-11 12:14:57.317747,1.6440198774585577,-1.3082500371441272,-1.2726664237209453,146.16700407953573,-50.46046844667888,-157.31445935058824,119.0,Jump_Takeoff,1.7495667381927735,-0.1540434233563066,-0.9552186475970059,99.85298658276521,4.281022149066064,-22.707395362196856,126.2001455356191,1.9992888266548394,102.4918137427268
A002,2025-05-11 12:14:57.417747,2.9923395272262834,2.7183124332098467,0.9306538242882384,-12.753155865508743,-125.21854219927334,5.613769891566847,105.0,Jump_Takeoff,1.6137477586472684,0.7895689006016898,-0.3362964602340893,96.71354098781678,-10.816733540947858,-68.85658999924236,125.2513578059166,1.8277571464782791,119.21300567145242
A002,2025-05-11 12:14:57.517747,-0.7135759413934664,1.6473614994875234,-0.4959511604020452,170.0515745207922,84.86656196164171,-174.42002999148443,115.0,Start_Run,0.172502155656799,1.0747674711078294,0.9753122257223213,39.75855597694131,9.545566691641701,-101.37886497827492,124.51713830509739,1.4615457735908206,109.31392812043418
A002,2025-05-11 12:14:57.617747,-1.837174545192505,-1.8204804745082384,2.9372987479489616,-92.41881376960367,121.74913252209024,-10.683422803447373,80.0,Accel,-1.4074903055008596,0.8054439630549324,2.0530389875524397,-15.866006521960678,2.361654088995794,-112.99809718350872,123.96029919242505,2.6162450233322727,114.13096661329321
A002,2025-05-11 12:14:57.717747,-1.2302255030174856,1.6429547813539849,2.283965270649329,-85.9941138387311,-145.76519903431898,-130.70896096118045,147.0,Start_Run,-1.912726666440989,0.5996143368905384,2.2615866755866896,-22.104816080926415,-45.96898369068223,-96.62605190184387,123.52500600538332,3.022058064417425,109.26282195542827
A002,2025-05-11 12:14:57.817747,-1.8798342152315275,2.031465998228549,1.45069998533822,155.10133136156776,-120.41289518223252,-128.0695269180271,139.0,Landing,-1.1926226063450198,0.7167986048749189,1.653904081918292,8.648448191116824,-73.73152591657518,-49.748917651767826,123.14563870346535,2.1613763284772523,89.36491692841999
A002,2025-05-11 12:14:57.917747,0.6866019290105716,-0.1189593488424627,0.5937998179432529,-115.06328320497433,-7.339048500929977,56.91332193828043,154.0,Accel,-0.08840055387369168,1.0444114195070147,0.7784123231159156,21.865964861588672,-35.87248326689826,4.425932876079917,122.75813093594418,1.3055786517481622,42.243867683791585
A002,2025-05-11 12:14:58.017747,0.0546499943486149,1.253740822577086,0.4160816669583127,108.86500141991536,46.57052299324229,103.66929626697498,102.0,Accel,0.5399419025074557,1.4754644230508969,0.1348421321216801,-14.077525937868405,33.46557340974955,28.664569700542813,122.31130667942865,1.5769321235764737,46.25774417642921
A002,2025-05-11 12:14:58.117747,1.011150830676682,2.070633845881571,-0.8722374333412883,-163.42807098898132,175.23921505880077,-85.0686280376159,129.0,Stop,0.5999266445021934,1.880223685998451,-0.1212922548012861,-73.8265089088992,75.28509539339173,14.881080885069595,121.77587323294118,1.9773378313399161,106.48777194765533
A002,2025-05-11 12:14:58.217747,0.2546502532909969,2.953437982227649,2.1368615884201168,-70.41803308128121,-71.62348834875947,-5.912175186698704,127.0,Landing,0.6703651206741912,2.004347705684335,-0.016317284424409263,-106.37525341816158,77.29098758537005,-4.504191713917779,121.14965684219867,2.1135433220233666,131.56701351286975
A002,2025-05-11 12:14:58.317747,1.3492230342843996,0.672023383988674,-2.281329720698634,-121.20393250284891,50.66400935068037,112.82954915551278,138.0,Stop,1.2336992640676392,1.663339279281495,0.3883571783495588,-90.32495132240683,59.27624480037382,4.557110582466571,120.45865726049769,2.107019869421584,108.13434831675751
A002,2025-05-11 12:14:58.417747,2.0487040398408807,0.3983981685628111,1.6804436137397438,-2.7377548270130774,162.55074111058815,-111.3485292765235,91.0,Stop,2.0338588747448703,0.8801045358152553,0.8431381697860972,-52.71742519521491,26.131246751798493,40.40284117834674,119.75412935988125,2.371085803949597,71.37477531522723
A002,2025-05-11 12:14:58.517747,1.8967534419237229,1.2502379761363578,1.9724655943708616,-77.1628789501622,-113.3608570459757,169.8860457546014,125.0,Landing,2.2202535678001576,-0.1660529910916081,0.946511481742894,-37.98704689692036,-20.859763449169623,70.0960354181183,119.10629114896464,2.419294005748563,82.41116213500594
A002,2025-05-11 12:14:58.617747,1.8473601416070284,-1.4574902051776637,0.481933475485218,-57.84746537049109,10.716648310972886,60.09084704698901,134.0,Jump_Takeoff,1.2222995966804102,-1.1302127967858397,0.6175155750872534,-63.62671373353457,-49.57361751870599,65.6331257088993,118.59555491417984,1.7755908187245464,103.9885063107471
A002,2025-05-11 12:14:58.717747,-0.4255633952699806,-2.894300957153356,-1.5841465372832917,-77.47488393598289,-139.7304193153239,47.35328750735775,128.0,Sprint_Mid,-0.4746884194130252,-1.5796472306666818,0.27392864616283474,-102.06692803217908,-20.943217652939833,32.47695980855597,118.30230265196056,1.6720201470276477,109.13766115320134
A002,2025-05-11 12:14:58.817747,-1.6646777416339742,-0.075532932658259,2.113972058912654,-108.86163069929086,169.58369955862742,-134.0631690065491,99.0,Start_Run,-1.6061670325874609,-1.3416054591270745,0.31653986455191563,-101.86907449700699,54.68612248075609,-1.5631885215248489,118.29622318743388,2.116571574594378,115.63011670499534
A002,2025-05-11 12:14:58.917747,-2.8497819825753368,-0.3105669206676209,0.6646881364676833,-65.31728467464374,98.06677996436702,169.73174529729857,98.0,Landing,-1.4043767841162207,-0.7150132864097009,0.6967388226107606,-36.673147751107216,115.4794719072661,-19.1812183944501,118.62634983022234,1.7230679436516854,122.67170552760402
A002,2025-05-11 12:14:59.017747,0.7868213772467914,-2.260521982922929,-0.0521353949238125,55.86545292367228,28.48605003198369,-129.5998262277327,121.0,Sprint_Mid,-0.47182757038197576,-0.22085534289064607,1.115952920485507,56.855476444963784,108.47830710185204,-23.4990078875406,119.31317061595692,1.2315637455674129,124.7088276152344
A002,2025-05-11 12:14:59.117747,1.0283460289499295,1.8534557765386568,2.4484464151775454,112.90014552460208,170.6125963993901,-33.02935050055126,112.0,Start_Run,-0.07960963775803219,-0.15790099708600444,1.3647234517723092,100.75225057311319,42.091423183092296,-24.540856413748465,120.3441202348569,1.376132449701716,111.91495670662508
A002,2025-05-11 12:14:59.217747,-2.830895685929298,-0.3006248640714393,0.9082293144793948,113.5471108760912,-83.71606220122669,4.892859492944581,111.0,Sprint_Mid,-0.6895217193182736,-0.3566383980463652,1.3657083104609395,52.45104911911118,-21.995619217947592,-30.80425700929683,121.67315162863831,1.5709202200095267,64.68247110594316
A002,2025-05-11 12:14:59.317747,-0.4159585711052695,-2.3119125457279788,1.2855807769310923,-101.6054573223536,-116.41556663114709,-51.00374570782205,179.0,Stop,-1.5035788799071554,-0.3833425424638574,1.090091537718977,-44.684732644800555,-26.927296424027766,-45.250035459345746,123.2241773767111,1.8963123459947295,69.06062795339187
A002,2025-05-11 12:14:59.417747,-0.742909257084289,1.459669553503165,-0.262268408687996,-169.70034830427534,151.15562196308673,-24.92987689232541,84.0,Start_Run,-1.4444459111847665,-0.0744761397536578,0.5479131308563894,-102.47307569426627,30.399547538597826,-59.71953582926117,124.89744031855703,1.5466672184719787,122.43891004275031
